consentKey.keys,consentKey.rt,languageL1Key.keys,languageL1Key.rt,languageL2,languageL2OralKey.keys,languageL2OralKey.rt,languageL2WrittenKey.keys,languageL2WrittenKey.rt,languageL3OralKey.keys,languageL3OralKey.rt,languageL3WrittenKey.keys,languageL3WrittenKey.rt,languageCatalanOralKey.keys,languageCatalanOralKey.rt,languageCatalanWrittenKey.keys,languageCatalanWrittenKey.rt,languageCatalanTimeKey.keys,languageCatalanTimeKey.rt,age,demoSexKey.keys,demoSexKey.rt,demoEducationKey.keys,demoEducationKey.rt,city,demoVisionKey.keys,demoVisionKey.rt,demoLanguageKey.keys,demoLanguageKey.rt,setupLocationKey.keys,setupLocationKey.rt,setupNoiseKey.keys,setupNoiseKey.rt,instructionsKeys.keys,instructionsKeys.rt,keyPressed,keyPressTime,inputText,error,trials_practice.thisRepN,trials_practice.thisTrialN,trials_practice.thisN,trials_practice.thisIndex,trials_practice.ran,trials_practice.order,trial_id,word,test_language,soundfile,date,expName,psychopyVersion,OS,frameRate,participant,trialOffset,trials.thisRepN,trials.thisTrialN,trials.thisN,trials.thisIndex,trials.ran,trials.order
space,2.561999798,e,10.14399981,,4,10.36299992,4,10.91999984,,,,,2,5.824999809,1,3.985999823,1,5.160999775,21,m,2.370999813,3,4.859999895,MURCIA,n,5.582999706,n,6.739999771,1,4.419999838,1,5.505999804,space,14.56799984,space,5.578999996, ,FALSE,1,0,5,2,1,4,159,onada,Catalan,Sounds/cat_onada.mp3,2020-06-13_22h03.32.059,TranslationElicitation_spa,3.2.4,Win32,60,5ee3e0ad6b4a780c4b3b39cd,,,,,,,
,,,,,,,,,,,,,,,,,,,,,,,,,,,,,,,,,,,u,77.7420001, U,FALSE,1,0,5,2,1,4,159,onada,Catalan,Sounds/cat_onada.mp3,2020-06-13_22h03.32.059,TranslationElicitation_spa,3.2.4,Win32,60,5ee3e0ad6b4a780c4b3b39cd,,,,,,,
,,,,,,,,,,,,,,,,,,,,,,,,,,,,,,,,,,,n,78.0480001, UN,FALSE,1,0,5,2,1,4,159,onada,Catalan,Sounds/cat_onada.mp3,2020-06-13_22h03.32.059,TranslationElicitation_spa,3.2.4,Win32,60,5ee3e0ad6b4a780c4b3b39cd,,,,,,,
,,,,,,,,,,,,,,,,,,,,,,,,,,,,,,,,,,,space,78.43000007, UN ,FALSE,1,0,5,2,1,4,159,onada,Catalan,Sounds/cat_onada.mp3,2020-06-13_22h03.32.059,TranslationElicitation_spa,3.2.4,Win32,60,5ee3e0ad6b4a780c4b3b39cd,,,,,,,
,,,,,,,,,,,,,,,,,,,,,,,,,,,,,,,,,,,h,78.96000004, UN H,FALSE,1,0,5,2,1,4,159,onada,Catalan,Sounds/cat_onada.mp3,2020-06-13_22h03.32.059,TranslationElicitation_spa,3.2.4,Win32,60,5ee3e0ad6b4a780c4b3b39cd,,,,,,,
,,,,,,,,,,,,,,,,,,,,,,,,,,,,,,,,,,,backspace,80.13600016, UN,TRUE,1,0,5,2,1,4,159,onada,Catalan,Sounds/cat_onada.mp3,2020-06-13_22h03.32.059,TranslationElicitation_spa,3.2.4,Win32,60,5ee3e0ad6b4a780c4b3b39cd,,,,,,,
,,,,,,,,,,,,,,,,,,,,,,,,,,,,,,,,,,,backspace,80.92600012, ,TRUE,1,0,5,2,1,4,159,onada,Catalan,Sounds/cat_onada.mp3,2020-06-13_22h03.32.059,TranslationElicitation_spa,3.2.4,Win32,60,5ee3e0ad6b4a780c4b3b39cd,,,,,,,
,,,,,,,,,,,,,,,,,,,,,,,,,,,,,,,,,,,backspace,81.19300008,,TRUE,1,0,5,2,1,4,159,onada,Catalan,Sounds/cat_onada.mp3,2020-06-13_22h03.32.059,TranslationElicitation_spa,3.2.4,Win32,60,5ee3e0ad6b4a780c4b3b39cd,,,,,,,
,,,,,,,,,,,,,,,,,,,,,,,,,,,,,,,,,,,backspace,81.35899997,,TRUE,1,0,5,2,1,4,159,onada,Catalan,Sounds/cat_onada.mp3,2020-06-13_22h03.32.059,TranslationElicitation_spa,3.2.4,Win32,60,5ee3e0ad6b4a780c4b3b39cd,,,,,,,
,,,,,,,,,,,,,,,,,,,,,,,,,,,,,,,,,,,h,83.32700014,H,TRUE,1,0,5,2,1,4,159,onada,Catalan,Sounds/cat_onada.mp3,2020-06-13_22h03.32.059,TranslationElicitation_spa,3.2.4,Win32,60,5ee3e0ad6b4a780c4b3b39cd,,,,,,,
,,,,,,,,,,,,,,,,,,,,,,,,,,,,,,,,,,,a,83.52600002,HA,TRUE,1,0,5,2,1,4,159,onada,Catalan,Sounds/cat_onada.mp3,2020-06-13_22h03.32.059,TranslationElicitation_spa,3.2.4,Win32,60,5ee3e0ad6b4a780c4b3b39cd,,,,,,,
,,,,,,,,,,,,,,,,,,,,,,,,,,,,,,,,,,,d,83.71000004,HAD,TRUE,1,0,5,2,1,4,159,onada,Catalan,Sounds/cat_onada.mp3,2020-06-13_22h03.32.059,TranslationElicitation_spa,3.2.4,Win32,60,5ee3e0ad6b4a780c4b3b39cd,,,,,,,
,,,,,,,,,,,,,,,,,,,,,,,,,,,,,,,,,,,a,83.80800009,HADA,TRUE,1,0,5,2,1,4,159,onada,Catalan,Sounds/cat_onada.mp3,2020-06-13_22h03.32.059,TranslationElicitation_spa,3.2.4,Win32,60,5ee3e0ad6b4a780c4b3b39cd,,,,,,,
,,,,,,,,,,,,,,,,,,,,,,,,,,,,,,,,,,,return,85.37700009,,TRUE,1,0,5,2,1,4,159,onada,Catalan,Sounds/cat_onada.mp3,2020-06-13_22h03.32.059,TranslationElicitation_spa,3.2.4,Win32,60,5ee3e0ad6b4a780c4b3b39cd,85.37700009,,,,,,
,,,,,,,,,,,,,,,,,,,,,,,,,,,,,,,,,,,,,,,1,0,5,2,1,4,159,onada,Catalan,Sounds/cat_onada.mp3,2020-06-13_22h03.32.059,TranslationElicitation_spa,3.2.4,Win32,60,5ee3e0ad6b4a780c4b3b39cd,,,,,,,
,,,,,,,,,,,,,,,,,,,,,,,,,,,,,,,,,,,a,53.64899993,A,FALSE,1,0,5,0,1,4,109,arbre,Catalan,Sounds/cat_arbre.mp3,2020-06-13_22h03.32.059,TranslationElicitation_spa,3.2.4,Win32,60,5ee3e0ad6b4a780c4b3b39cd,,,,,,,
,,,,,,,,,,,,,,,,,,,,,,,,,,,,,,,,,,,r,53.90999985,AR,FALSE,1,0,5,0,1,4,109,arbre,Catalan,Sounds/cat_arbre.mp3,2020-06-13_22h03.32.059,TranslationElicitation_spa,3.2.4,Win32,60,5ee3e0ad6b4a780c4b3b39cd,,,,,,,
,,,,,,,,,,,,,,,,,,,,,,,,,,,,,,,,,,,b,54.15499997,ARB,FALSE,1,0,5,0,1,4,109,arbre,Catalan,Sounds/cat_arbre.mp3,2020-06-13_22h03.32.059,TranslationElicitation_spa,3.2.4,Win32,60,5ee3e0ad6b4a780c4b3b39cd,,,,,,,
,,,,,,,,,,,,,,,,,,,,,,,,,,,,,,,,,,,o,54.29200006,ARBO,FALSE,1,0,5,0,1,4,109,arbre,Catalan,Sounds/cat_arbre.mp3,2020-06-13_22h03.32.059,TranslationElicitation_spa,3.2.4,Win32,60,5ee3e0ad6b4a780c4b3b39cd,,,,,,,
,,,,,,,,,,,,,,,,,,,,,,,,,,,,,,,,,,,l,54.49399996,ARBOL,FALSE,1,0,5,0,1,4,109,arbre,Catalan,Sounds/cat_arbre.mp3,2020-06-13_22h03.32.059,TranslationElicitation_spa,3.2.4,Win32,60,5ee3e0ad6b4a780c4b3b39cd,,,,,,,
,,,,,,,,,,,,,,,,,,,,,,,,,,,,,,,,,,,return,54.82200003,,FALSE,1,0,5,0,1,4,109,arbre,Catalan,Sounds/cat_arbre.mp3,2020-06-13_22h03.32.059,TranslationElicitation_spa,3.2.4,Win32,60,5ee3e0ad6b4a780c4b3b39cd,54.82200003,,,,,,
,,,,,,,,,,,,,,,,,,,,,,,,,,,,,,,,,,,,,,,1,0,5,0,1,4,109,arbre,Catalan,Sounds/cat_arbre.mp3,2020-06-13_22h03.32.059,TranslationElicitation_spa,3.2.4,Win32,60,5ee3e0ad6b4a780c4b3b39cd,,,,,,,
,,,,,,,,,,,,,,,,,,,,,,,,,,,,,,,,,,,c,2.802000046,C,FALSE,1,0,5,1,1,4,147,jaqueta,Catalan,Sounds/cat_jaqueta.mp3,2020-06-13_22h03.32.059,TranslationElicitation_spa,3.2.4,Win32,60,5ee3e0ad6b4a780c4b3b39cd,,,,,,,
,,,,,,,,,,,,,,,,,,,,,,,,,,,,,,,,,,,h,2.930000067,CH,FALSE,1,0,5,1,1,4,147,jaqueta,Catalan,Sounds/cat_jaqueta.mp3,2020-06-13_22h03.32.059,TranslationElicitation_spa,3.2.4,Win32,60,5ee3e0ad6b4a780c4b3b39cd,,,,,,,
,,,,,,,,,,,,,,,,,,,,,,,,,,,,,,,,,,,a,3.062000036,CHA,FALSE,1,0,5,1,1,4,147,jaqueta,Catalan,Sounds/cat_jaqueta.mp3,2020-06-13_22h03.32.059,TranslationElicitation_spa,3.2.4,Win32,60,5ee3e0ad6b4a780c4b3b39cd,,,,,,,
,,,,,,,,,,,,,,,,,,,,,,,,,,,,,,,,,,,q,3.320000172,CHAQ,FALSE,1,0,5,1,1,4,147,jaqueta,Catalan,Sounds/cat_jaqueta.mp3,2020-06-13_22h03.32.059,TranslationElicitation_spa,3.2.4,Win32,60,5ee3e0ad6b4a780c4b3b39cd,,,,,,,
,,,,,,,,,,,,,,,,,,,,,,,,,,,,,,,,,,,u,3.443000078,CHAQU,FALSE,1,0,5,1,1,4,147,jaqueta,Catalan,Sounds/cat_jaqueta.mp3,2020-06-13_22h03.32.059,TranslationElicitation_spa,3.2.4,Win32,60,5ee3e0ad6b4a780c4b3b39cd,,,,,,,
,,,,,,,,,,,,,,,,,,,,,,,,,,,,,,,,,,,e,3.546000004,CHAQUE,FALSE,1,0,5,1,1,4,147,jaqueta,Catalan,Sounds/cat_jaqueta.mp3,2020-06-13_22h03.32.059,TranslationElicitation_spa,3.2.4,Win32,60,5ee3e0ad6b4a780c4b3b39cd,,,,,,,
,,,,,,,,,,,,,,,,,,,,,,,,,,,,,,,,,,,t,3.718000174,CHAQUET,FALSE,1,0,5,1,1,4,147,jaqueta,Catalan,Sounds/cat_jaqueta.mp3,2020-06-13_22h03.32.059,TranslationElicitation_spa,3.2.4,Win32,60,5ee3e0ad6b4a780c4b3b39cd,,,,,,,
,,,,,,,,,,,,,,,,,,,,,,,,,,,,,,,,,,,a,3.976999998,CHAQUETA,FALSE,1,0,5,1,1,4,147,jaqueta,Catalan,Sounds/cat_jaqueta.mp3,2020-06-13_22h03.32.059,TranslationElicitation_spa,3.2.4,Win32,60,5ee3e0ad6b4a780c4b3b39cd,,,,,,,
,,,,,,,,,,,,,,,,,,,,,,,,,,,,,,,,,,,return,5.129000187,,FALSE,1,0,5,1,1,4,147,jaqueta,Catalan,Sounds/cat_jaqueta.mp3,2020-06-13_22h03.32.059,TranslationElicitation_spa,3.2.4,Win32,60,5ee3e0ad6b4a780c4b3b39cd,5.129000187,,,,,,
,,,,,,,,,,,,,,,,,,,,,,,,,,,,,,,,,,,,,,,1,0,5,1,1,4,147,jaqueta,Catalan,Sounds/cat_jaqueta.mp3,2020-06-13_22h03.32.059,TranslationElicitation_spa,3.2.4,Win32,60,5ee3e0ad6b4a780c4b3b39cd,,,,,,,
,,,,,,,,,,,,,,,,,,,,,,,,,,,,,,,,,,,t,1.646999836,T,FALSE,1,0,5,4,1,4,179,tigre,Catalan,Sounds/cat_tigre.mp3,2020-06-13_22h03.32.059,TranslationElicitation_spa,3.2.4,Win32,60,5ee3e0ad6b4a780c4b3b39cd,,,,,,,
,,,,,,,,,,,,,,,,,,,,,,,,,,,,,,,,,,,i,1.896999836,TI,FALSE,1,0,5,4,1,4,179,tigre,Catalan,Sounds/cat_tigre.mp3,2020-06-13_22h03.32.059,TranslationElicitation_spa,3.2.4,Win32,60,5ee3e0ad6b4a780c4b3b39cd,,,,,,,
,,,,,,,,,,,,,,,,,,,,,,,,,,,,,,,,,,,g,2.046999931,TIG,FALSE,1,0,5,4,1,4,179,tigre,Catalan,Sounds/cat_tigre.mp3,2020-06-13_22h03.32.059,TranslationElicitation_spa,3.2.4,Win32,60,5ee3e0ad6b4a780c4b3b39cd,,,,,,,
,,,,,,,,,,,,,,,,,,,,,,,,,,,,,,,,,,,r,2.229999781,TIGR,FALSE,1,0,5,4,1,4,179,tigre,Catalan,Sounds/cat_tigre.mp3,2020-06-13_22h03.32.059,TranslationElicitation_spa,3.2.4,Win32,60,5ee3e0ad6b4a780c4b3b39cd,,,,,,,
,,,,,,,,,,,,,,,,,,,,,,,,,,,,,,,,,,,e,2.400999784,TIGRE,FALSE,1,0,5,4,1,4,179,tigre,Catalan,Sounds/cat_tigre.mp3,2020-06-13_22h03.32.059,TranslationElicitation_spa,3.2.4,Win32,60,5ee3e0ad6b4a780c4b3b39cd,,,,,,,
,,,,,,,,,,,,,,,,,,,,,,,,,,,,,,,,,,,return,2.946999788,,FALSE,1,0,5,4,1,4,179,tigre,Catalan,Sounds/cat_tigre.mp3,2020-06-13_22h03.32.059,TranslationElicitation_spa,3.2.4,Win32,60,5ee3e0ad6b4a780c4b3b39cd,2.946999788,,,,,,
,,,,,,,,,,,,,,,,,,,,,,,,,,,,,,,,,,,,,,,1,0,5,4,1,4,179,tigre,Catalan,Sounds/cat_tigre.mp3,2020-06-13_22h03.32.059,TranslationElicitation_spa,3.2.4,Win32,60,5ee3e0ad6b4a780c4b3b39cd,,,,,,,
,,,,,,,,,,,,,,,,,,,,,,,,,,,,,,,,,,,p,1.496999979,P,FALSE,1,0,5,3,1,4,167,pingui,Catalan,Sounds/cat_pingui.mp3,2020-06-13_22h03.32.059,TranslationElicitation_spa,3.2.4,Win32,60,5ee3e0ad6b4a780c4b3b39cd,,,,,,,
,,,,,,,,,,,,,,,,,,,,,,,,,,,,,,,,,,,i,1.796999931,PI,FALSE,1,0,5,3,1,4,167,pingui,Catalan,Sounds/cat_pingui.mp3,2020-06-13_22h03.32.059,TranslationElicitation_spa,3.2.4,Win32,60,5ee3e0ad6b4a780c4b3b39cd,,,,,,,
,,,,,,,,,,,,,,,,,,,,,,,,,,,,,,,,,,,n,1.990999937,PIN,FALSE,1,0,5,3,1,4,167,pingui,Catalan,Sounds/cat_pingui.mp3,2020-06-13_22h03.32.059,TranslationElicitation_spa,3.2.4,Win32,60,5ee3e0ad6b4a780c4b3b39cd,,,,,,,
,,,,,,,,,,,,,,,,,,,,,,,,,,,,,,,,,,,g,2.197000027,PING,FALSE,1,0,5,3,1,4,167,pingui,Catalan,Sounds/cat_pingui.mp3,2020-06-13_22h03.32.059,TranslationElicitation_spa,3.2.4,Win32,60,5ee3e0ad6b4a780c4b3b39cd,,,,,,,
,,,,,,,,,,,,,,,,,,,,,,,,,,,,,,,,,,,u,2.645999908,PINGU,FALSE,1,0,5,3,1,4,167,pingui,Catalan,Sounds/cat_pingui.mp3,2020-06-13_22h03.32.059,TranslationElicitation_spa,3.2.4,Win32,60,5ee3e0ad6b4a780c4b3b39cd,,,,,,,
,,,,,,,,,,,,,,,,,,,,,,,,,,,,,,,,,,,backspace,3.131000042,PIN,TRUE,1,0,5,3,1,4,167,pingui,Catalan,Sounds/cat_pingui.mp3,2020-06-13_22h03.32.059,TranslationElicitation_spa,3.2.4,Win32,60,5ee3e0ad6b4a780c4b3b39cd,,,,,,,
,,,,,,,,,,,,,,,,,,,,,,,,,,,,,,,,,,,g,5.263999939,PING,TRUE,1,0,5,3,1,4,167,pingui,Catalan,Sounds/cat_pingui.mp3,2020-06-13_22h03.32.059,TranslationElicitation_spa,3.2.4,Win32,60,5ee3e0ad6b4a780c4b3b39cd,,,,,,,
,,,,,,,,,,,,,,,,,,,,,,,,,,,,,,,,,,,apostrophe,7.003999949,PING,TRUE,1,0,5,3,1,4,167,pingui,Catalan,Sounds/cat_pingui.mp3,2020-06-13_22h03.32.059,TranslationElicitation_spa,3.2.4,Win32,60,5ee3e0ad6b4a780c4b3b39cd,,,,,,,
,,,,,,,,,,,,,,,,,,,,,,,,,,,,,,,,,,,u,7.630000114,PINGÚ,TRUE,1,0,5,3,1,4,167,pingui,Catalan,Sounds/cat_pingui.mp3,2020-06-13_22h03.32.059,TranslationElicitation_spa,3.2.4,Win32,60,5ee3e0ad6b4a780c4b3b39cd,,,,,,,
,,,,,,,,,,,,,,,,,,,,,,,,,,,,,,,,,,,i,7.713999987,PINGÚI,TRUE,1,0,5,3,1,4,167,pingui,Catalan,Sounds/cat_pingui.mp3,2020-06-13_22h03.32.059,TranslationElicitation_spa,3.2.4,Win32,60,5ee3e0ad6b4a780c4b3b39cd,,,,,,,
,,,,,,,,,,,,,,,,,,,,,,,,,,,,,,,,,,,n,8.015000105,PINGÚIN,TRUE,1,0,5,3,1,4,167,pingui,Catalan,Sounds/cat_pingui.mp3,2020-06-13_22h03.32.059,TranslationElicitation_spa,3.2.4,Win32,60,5ee3e0ad6b4a780c4b3b39cd,,,,,,,
,,,,,,,,,,,,,,,,,,,,,,,,,,,,,,,,,,,backspace,9.10800004,PINGÚ,TRUE,1,0,5,3,1,4,167,pingui,Catalan,Sounds/cat_pingui.mp3,2020-06-13_22h03.32.059,TranslationElicitation_spa,3.2.4,Win32,60,5ee3e0ad6b4a780c4b3b39cd,,,,,,,
,,,,,,,,,,,,,,,,,,,,,,,,,,,,,,,,,,,backspace,9.328999996,PIN,TRUE,1,0,5,3,1,4,167,pingui,Catalan,Sounds/cat_pingui.mp3,2020-06-13_22h03.32.059,TranslationElicitation_spa,3.2.4,Win32,60,5ee3e0ad6b4a780c4b3b39cd,,,,,,,
,,,,,,,,,,,,,,,,,,,,,,,,,,,,,,,,,,,backspace,9.579999924,P,TRUE,1,0,5,3,1,4,167,pingui,Catalan,Sounds/cat_pingui.mp3,2020-06-13_22h03.32.059,TranslationElicitation_spa,3.2.4,Win32,60,5ee3e0ad6b4a780c4b3b39cd,,,,,,,
,,,,,,,,,,,,,,,,,,,,,,,,,,,,,,,,,,,i,10.6960001,PI,TRUE,1,0,5,3,1,4,167,pingui,Catalan,Sounds/cat_pingui.mp3,2020-06-13_22h03.32.059,TranslationElicitation_spa,3.2.4,Win32,60,5ee3e0ad6b4a780c4b3b39cd,,,,,,,
,,,,,,,,,,,,,,,,,,,,,,,,,,,,,,,,,,,n,10.84500003,PIN,TRUE,1,0,5,3,1,4,167,pingui,Catalan,Sounds/cat_pingui.mp3,2020-06-13_22h03.32.059,TranslationElicitation_spa,3.2.4,Win32,60,5ee3e0ad6b4a780c4b3b39cd,,,,,,,
,,,,,,,,,,,,,,,,,,,,,,,,,,,,,,,,,,,g,10.96399999,PING,TRUE,1,0,5,3,1,4,167,pingui,Catalan,Sounds/cat_pingui.mp3,2020-06-13_22h03.32.059,TranslationElicitation_spa,3.2.4,Win32,60,5ee3e0ad6b4a780c4b3b39cd,,,,,,,
,,,,,,,,,,,,,,,,,,,,,,,,,,,,,,,,,,,u,11.08100009,PINGU,TRUE,1,0,5,3,1,4,167,pingui,Catalan,Sounds/cat_pingui.mp3,2020-06-13_22h03.32.059,TranslationElicitation_spa,3.2.4,Win32,60,5ee3e0ad6b4a780c4b3b39cd,,,,,,,
,,,,,,,,,,,,,,,,,,,,,,,,,,,,,,,,,,,i,11.29699993,PINGUI,TRUE,1,0,5,3,1,4,167,pingui,Catalan,Sounds/cat_pingui.mp3,2020-06-13_22h03.32.059,TranslationElicitation_spa,3.2.4,Win32,60,5ee3e0ad6b4a780c4b3b39cd,,,,,,,
,,,,,,,,,,,,,,,,,,,,,,,,,,,,,,,,,,,n,11.49399996,PINGUIN,TRUE,1,0,5,3,1,4,167,pingui,Catalan,Sounds/cat_pingui.mp3,2020-06-13_22h03.32.059,TranslationElicitation_spa,3.2.4,Win32,60,5ee3e0ad6b4a780c4b3b39cd,,,,,,,
,,,,,,,,,,,,,,,,,,,,,,,,,,,,,,,,,,,o,11.61400008,PINGUINO,TRUE,1,0,5,3,1,4,167,pingui,Catalan,Sounds/cat_pingui.mp3,2020-06-13_22h03.32.059,TranslationElicitation_spa,3.2.4,Win32,60,5ee3e0ad6b4a780c4b3b39cd,,,,,,,
,,,,,,,,,,,,,,,,,,,,,,,,,,,,,,,,,,,return,11.99600005,,TRUE,1,0,5,3,1,4,167,pingui,Catalan,Sounds/cat_pingui.mp3,2020-06-13_22h03.32.059,TranslationElicitation_spa,3.2.4,Win32,60,5ee3e0ad6b4a780c4b3b39cd,11.99500012,,,,,,
,,,,,,,,,,,,,,,,,,,,,,,,,,,,,,,,,,,,,,,1,0,5,3,1,4,167,pingui,Catalan,Sounds/cat_pingui.mp3,2020-06-13_22h03.32.059,TranslationElicitation_spa,3.2.4,Win32,60,5ee3e0ad6b4a780c4b3b39cd,,,,,,,
,,,,,,,,,,,,,,,,,,,,,,,,,,,,,,,,,,,v,3.846000195,V,FALSE,,,,,,,118,bou,Catalan,Sounds/cat_bou.mp3,2020-06-13_22h03.32.059,TranslationElicitation_spa,3.2.4,Win32,60,5ee3e0ad6b4a780c4b3b39cd,,1,0,80,13,1,79
,,,,,,,,,,,,,,,,,,,,,,,,,,,,,,,,,,,o,4.029000044,VO,FALSE,,,,,,,118,bou,Catalan,Sounds/cat_bou.mp3,2020-06-13_22h03.32.059,TranslationElicitation_spa,3.2.4,Win32,60,5ee3e0ad6b4a780c4b3b39cd,,1,0,80,13,1,79
,,,,,,,,,,,,,,,,,,,,,,,,,,,,,,,,,,,y,4.296000004,VOY,FALSE,,,,,,,118,bou,Catalan,Sounds/cat_bou.mp3,2020-06-13_22h03.32.059,TranslationElicitation_spa,3.2.4,Win32,60,5ee3e0ad6b4a780c4b3b39cd,,1,0,80,13,1,79
,,,,,,,,,,,,,,,,,,,,,,,,,,,,,,,,,,,return,4.986000061,,FALSE,,,,,,,118,bou,Catalan,Sounds/cat_bou.mp3,2020-06-13_22h03.32.059,TranslationElicitation_spa,3.2.4,Win32,60,5ee3e0ad6b4a780c4b3b39cd,4.986000061,1,0,80,13,1,79
,,,,,,,,,,,,,,,,,,,,,,,,,,,,,,,,,,,,,,,,,,,,,118,bou,Catalan,Sounds/cat_bou.mp3,2020-06-13_22h03.32.059,TranslationElicitation_spa,3.2.4,Win32,60,5ee3e0ad6b4a780c4b3b39cd,,1,0,80,13,1,79
,,,,,,,,,,,,,,,,,,,,,,,,,,,,,,,,,,,c,50.86300015,C,FALSE,,,,,,,106,aixeta,Catalan,Sounds/cat_aixeta.mp3,2020-06-13_22h03.32.059,TranslationElicitation_spa,3.2.4,Win32,60,5ee3e0ad6b4a780c4b3b39cd,,1,0,80,2,1,79
,,,,,,,,,,,,,,,,,,,,,,,,,,,,,,,,,,,h,51.0940001,CH,FALSE,,,,,,,106,aixeta,Catalan,Sounds/cat_aixeta.mp3,2020-06-13_22h03.32.059,TranslationElicitation_spa,3.2.4,Win32,60,5ee3e0ad6b4a780c4b3b39cd,,1,0,80,2,1,79
,,,,,,,,,,,,,,,,,,,,,,,,,,,,,,,,,,,a,51.27699995,CHA,FALSE,,,,,,,106,aixeta,Catalan,Sounds/cat_aixeta.mp3,2020-06-13_22h03.32.059,TranslationElicitation_spa,3.2.4,Win32,60,5ee3e0ad6b4a780c4b3b39cd,,1,0,80,2,1,79
,,,,,,,,,,,,,,,,,,,,,,,,,,,,,,,,,,,q,51.49399996,CHAQ,FALSE,,,,,,,106,aixeta,Catalan,Sounds/cat_aixeta.mp3,2020-06-13_22h03.32.059,TranslationElicitation_spa,3.2.4,Win32,60,5ee3e0ad6b4a780c4b3b39cd,,1,0,80,2,1,79
,,,,,,,,,,,,,,,,,,,,,,,,,,,,,,,,,,,u,51.56800008,CHAQU,FALSE,,,,,,,106,aixeta,Catalan,Sounds/cat_aixeta.mp3,2020-06-13_22h03.32.059,TranslationElicitation_spa,3.2.4,Win32,60,5ee3e0ad6b4a780c4b3b39cd,,1,0,80,2,1,79
,,,,,,,,,,,,,,,,,,,,,,,,,,,,,,,,,,,e,51.67600012,CHAQUE,FALSE,,,,,,,106,aixeta,Catalan,Sounds/cat_aixeta.mp3,2020-06-13_22h03.32.059,TranslationElicitation_spa,3.2.4,Win32,60,5ee3e0ad6b4a780c4b3b39cd,,1,0,80,2,1,79
,,,,,,,,,,,,,,,,,,,,,,,,,,,,,,,,,,,t,51.85100007,CHAQUET,FALSE,,,,,,,106,aixeta,Catalan,Sounds/cat_aixeta.mp3,2020-06-13_22h03.32.059,TranslationElicitation_spa,3.2.4,Win32,60,5ee3e0ad6b4a780c4b3b39cd,,1,0,80,2,1,79
,,,,,,,,,,,,,,,,,,,,,,,,,,,,,,,,,,,a,52.06100011,CHAQUETA,FALSE,,,,,,,106,aixeta,Catalan,Sounds/cat_aixeta.mp3,2020-06-13_22h03.32.059,TranslationElicitation_spa,3.2.4,Win32,60,5ee3e0ad6b4a780c4b3b39cd,,1,0,80,2,1,79
,,,,,,,,,,,,,,,,,,,,,,,,,,,,,,,,,,,return,52.32200003,,FALSE,,,,,,,106,aixeta,Catalan,Sounds/cat_aixeta.mp3,2020-06-13_22h03.32.059,TranslationElicitation_spa,3.2.4,Win32,60,5ee3e0ad6b4a780c4b3b39cd,52.32200003,1,0,80,2,1,79
,,,,,,,,,,,,,,,,,,,,,,,,,,,,,,,,,,,,,,,,,,,,,106,aixeta,Catalan,Sounds/cat_aixeta.mp3,2020-06-13_22h03.32.059,TranslationElicitation_spa,3.2.4,Win32,60,5ee3e0ad6b4a780c4b3b39cd,,1,0,80,2,1,79
,,,,,,,,,,,,,,,,,,,,,,,,,,,,,,,,,,,h,3.159000158,H,FALSE,,,,,,,136,forquilla,Catalan,Sounds/cat_forquilla.mp3,2020-06-13_22h03.32.059,TranslationElicitation_spa,3.2.4,Win32,60,5ee3e0ad6b4a780c4b3b39cd,,1,0,80,31,1,79
,,,,,,,,,,,,,,,,,,,,,,,,,,,,,,,,,,,o,3.346000195,HO,FALSE,,,,,,,136,forquilla,Catalan,Sounds/cat_forquilla.mp3,2020-06-13_22h03.32.059,TranslationElicitation_spa,3.2.4,Win32,60,5ee3e0ad6b4a780c4b3b39cd,,1,0,80,31,1,79
,,,,,,,,,,,,,,,,,,,,,,,,,,,,,,,,,,,r,3.562000036,HOR,FALSE,,,,,,,136,forquilla,Catalan,Sounds/cat_forquilla.mp3,2020-06-13_22h03.32.059,TranslationElicitation_spa,3.2.4,Win32,60,5ee3e0ad6b4a780c4b3b39cd,,1,0,80,31,1,79
,,,,,,,,,,,,,,,,,,,,,,,,,,,,,,,,,,,q,4.469000101,HORQ,FALSE,,,,,,,136,forquilla,Catalan,Sounds/cat_forquilla.mp3,2020-06-13_22h03.32.059,TranslationElicitation_spa,3.2.4,Win32,60,5ee3e0ad6b4a780c4b3b39cd,,1,0,80,31,1,79
,,,,,,,,,,,,,,,,,,,,,,,,,,,,,,,,,,,u,4.647000074,HORQU,FALSE,,,,,,,136,forquilla,Catalan,Sounds/cat_forquilla.mp3,2020-06-13_22h03.32.059,TranslationElicitation_spa,3.2.4,Win32,60,5ee3e0ad6b4a780c4b3b39cd,,1,0,80,31,1,79
,,,,,,,,,,,,,,,,,,,,,,,,,,,,,,,,,,,i,4.812000036,HORQUI,FALSE,,,,,,,136,forquilla,Catalan,Sounds/cat_forquilla.mp3,2020-06-13_22h03.32.059,TranslationElicitation_spa,3.2.4,Win32,60,5ee3e0ad6b4a780c4b3b39cd,,1,0,80,31,1,79
,,,,,,,,,,,,,,,,,,,,,,,,,,,,,,,,,,,l,5.197000027,HORQUIL,FALSE,,,,,,,136,forquilla,Catalan,Sounds/cat_forquilla.mp3,2020-06-13_22h03.32.059,TranslationElicitation_spa,3.2.4,Win32,60,5ee3e0ad6b4a780c4b3b39cd,,1,0,80,31,1,79
,,,,,,,,,,,,,,,,,,,,,,,,,,,,,,,,,,,l,5.34800005,HORQUILL,FALSE,,,,,,,136,forquilla,Catalan,Sounds/cat_forquilla.mp3,2020-06-13_22h03.32.059,TranslationElicitation_spa,3.2.4,Win32,60,5ee3e0ad6b4a780c4b3b39cd,,1,0,80,31,1,79
,,,,,,,,,,,,,,,,,,,,,,,,,,,,,,,,,,,a,5.463000059,HORQUILLA,FALSE,,,,,,,136,forquilla,Catalan,Sounds/cat_forquilla.mp3,2020-06-13_22h03.32.059,TranslationElicitation_spa,3.2.4,Win32,60,5ee3e0ad6b4a780c4b3b39cd,,1,0,80,31,1,79
,,,,,,,,,,,,,,,,,,,,,,,,,,,,,,,,,,,return,7.731000185,,FALSE,,,,,,,136,forquilla,Catalan,Sounds/cat_forquilla.mp3,2020-06-13_22h03.32.059,TranslationElicitation_spa,3.2.4,Win32,60,5ee3e0ad6b4a780c4b3b39cd,7.730000019,1,0,80,31,1,79
,,,,,,,,,,,,,,,,,,,,,,,,,,,,,,,,,,,,,,,,,,,,,136,forquilla,Catalan,Sounds/cat_forquilla.mp3,2020-06-13_22h03.32.059,TranslationElicitation_spa,3.2.4,Win32,60,5ee3e0ad6b4a780c4b3b39cd,,1,0,80,31,1,79
,,,,,,,,,,,,,,,,,,,,,,,,,,,,,,,,,,,a,1.498999834,A,FALSE,,,,,,,105,aigua,Catalan,Sounds/cat_aigua.mp3,2020-06-13_22h03.32.059,TranslationElicitation_spa,3.2.4,Win32,60,5ee3e0ad6b4a780c4b3b39cd,,1,0,80,1,1,79
,,,,,,,,,,,,,,,,,,,,,,,,,,,,,,,,,,,g,1.713999987,AG,FALSE,,,,,,,105,aigua,Catalan,Sounds/cat_aigua.mp3,2020-06-13_22h03.32.059,TranslationElicitation_spa,3.2.4,Win32,60,5ee3e0ad6b4a780c4b3b39cd,,1,0,80,1,1,79
,,,,,,,,,,,,,,,,,,,,,,,,,,,,,,,,,,,u,1.829999924,AGU,FALSE,,,,,,,105,aigua,Catalan,Sounds/cat_aigua.mp3,2020-06-13_22h03.32.059,TranslationElicitation_spa,3.2.4,Win32,60,5ee3e0ad6b4a780c4b3b39cd,,1,0,80,1,1,79
,,,,,,,,,,,,,,,,,,,,,,,,,,,,,,,,,,,a,1.940000057,AGUA,FALSE,,,,,,,105,aigua,Catalan,Sounds/cat_aigua.mp3,2020-06-13_22h03.32.059,TranslationElicitation_spa,3.2.4,Win32,60,5ee3e0ad6b4a780c4b3b39cd,,1,0,80,1,1,79
,,,,,,,,,,,,,,,,,,,,,,,,,,,,,,,,,,,return,2.523000002,,FALSE,,,,,,,105,aigua,Catalan,Sounds/cat_aigua.mp3,2020-06-13_22h03.32.059,TranslationElicitation_spa,3.2.4,Win32,60,5ee3e0ad6b4a780c4b3b39cd,2.523000002,1,0,80,1,1,79
,,,,,,,,,,,,,,,,,,,,,,,,,,,,,,,,,,,,,,,,,,,,,105,aigua,Catalan,Sounds/cat_aigua.mp3,2020-06-13_22h03.32.059,TranslationElicitation_spa,3.2.4,Win32,60,5ee3e0ad6b4a780c4b3b39cd,,1,0,80,1,1,79
,,,,,,,,,,,,,,,,,,,,,,,,,,,,,,,,,,,d,2.398999929,D,FALSE,,,,,,,129,dit,Catalan,Sounds/cat_dit.mp3,2020-06-13_22h03.32.059,TranslationElicitation_spa,3.2.4,Win32,60,5ee3e0ad6b4a780c4b3b39cd,,1,0,80,24,1,79
,,,,,,,,,,,,,,,,,,,,,,,,,,,,,,,,,,,i,2.813999891,DI,FALSE,,,,,,,129,dit,Catalan,Sounds/cat_dit.mp3,2020-06-13_22h03.32.059,TranslationElicitation_spa,3.2.4,Win32,60,5ee3e0ad6b4a780c4b3b39cd,,1,0,80,24,1,79
,,,,,,,,,,,,,,,,,,,,,,,,,,,,,,,,,,,c,17.48099995,DIC,FALSE,,,,,,,129,dit,Catalan,Sounds/cat_dit.mp3,2020-06-13_22h03.32.059,TranslationElicitation_spa,3.2.4,Win32,60,5ee3e0ad6b4a780c4b3b39cd,,1,0,80,24,1,79
,,,,,,,,,,,,,,,,,,,,,,,,,,,,,,,,,,,h,17.58200002,DICH,FALSE,,,,,,,129,dit,Catalan,Sounds/cat_dit.mp3,2020-06-13_22h03.32.059,TranslationElicitation_spa,3.2.4,Win32,60,5ee3e0ad6b4a780c4b3b39cd,,1,0,80,24,1,79
,,,,,,,,,,,,,,,,,,,,,,,,,,,,,,,,,,,o,17.64699984,DICHO,FALSE,,,,,,,129,dit,Catalan,Sounds/cat_dit.mp3,2020-06-13_22h03.32.059,TranslationElicitation_spa,3.2.4,Win32,60,5ee3e0ad6b4a780c4b3b39cd,,1,0,80,24,1,79
,,,,,,,,,,,,,,,,,,,,,,,,,,,,,,,,,,,return,18.38199997,,FALSE,,,,,,,129,dit,Catalan,Sounds/cat_dit.mp3,2020-06-13_22h03.32.059,TranslationElicitation_spa,3.2.4,Win32,60,5ee3e0ad6b4a780c4b3b39cd,18.38199997,1,0,80,24,1,79
,,,,,,,,,,,,,,,,,,,,,,,,,,,,,,,,,,,,,,,,,,,,,129,dit,Catalan,Sounds/cat_dit.mp3,2020-06-13_22h03.32.059,TranslationElicitation_spa,3.2.4,Win32,60,5ee3e0ad6b4a780c4b3b39cd,,1,0,80,24,1,79
,,,,,,,,,,,,,,,,,,,,,,,,,,,,,,,,,,,g,2.096999884,G,FALSE,,,,,,,140,gat,Catalan,Sounds/cat_gat.mp3,2020-06-13_22h03.32.059,TranslationElicitation_spa,3.2.4,Win32,60,5ee3e0ad6b4a780c4b3b39cd,,1,0,80,35,1,79
,,,,,,,,,,,,,,,,,,,,,,,,,,,,,,,,,,,a,2.227999926,GA,FALSE,,,,,,,140,gat,Catalan,Sounds/cat_gat.mp3,2020-06-13_22h03.32.059,TranslationElicitation_spa,3.2.4,Win32,60,5ee3e0ad6b4a780c4b3b39cd,,1,0,80,35,1,79
,,,,,,,,,,,,,,,,,,,,,,,,,,,,,,,,,,,t,2.412999868,GAT,FALSE,,,,,,,140,gat,Catalan,Sounds/cat_gat.mp3,2020-06-13_22h03.32.059,TranslationElicitation_spa,3.2.4,Win32,60,5ee3e0ad6b4a780c4b3b39cd,,1,0,80,35,1,79
,,,,,,,,,,,,,,,,,,,,,,,,,,,,,,,,,,,o,2.576999903,GATO,FALSE,,,,,,,140,gat,Catalan,Sounds/cat_gat.mp3,2020-06-13_22h03.32.059,TranslationElicitation_spa,3.2.4,Win32,60,5ee3e0ad6b4a780c4b3b39cd,,1,0,80,35,1,79
,,,,,,,,,,,,,,,,,,,,,,,,,,,,,,,,,,,return,3.026000023,,FALSE,,,,,,,140,gat,Catalan,Sounds/cat_gat.mp3,2020-06-13_22h03.32.059,TranslationElicitation_spa,3.2.4,Win32,60,5ee3e0ad6b4a780c4b3b39cd,3.026000023,1,0,80,35,1,79
,,,,,,,,,,,,,,,,,,,,,,,,,,,,,,,,,,,,,,,,,,,,,140,gat,Catalan,Sounds/cat_gat.mp3,2020-06-13_22h03.32.059,TranslationElicitation_spa,3.2.4,Win32,60,5ee3e0ad6b4a780c4b3b39cd,,1,0,80,35,1,79
,,,,,,,,,,,,,,,,,,,,,,,,,,,,,,,,,,,d,15.76199985,D,FALSE,,,,,,,133,estruc,Catalan,Sounds/cat_estruc.mp3,2020-06-13_22h03.32.059,TranslationElicitation_spa,3.2.4,Win32,60,5ee3e0ad6b4a780c4b3b39cd,,1,0,80,28,1,79
,,,,,,,,,,,,,,,,,,,,,,,,,,,,,,,,,,,backspace,16.61399984,,TRUE,,,,,,,133,estruc,Catalan,Sounds/cat_estruc.mp3,2020-06-13_22h03.32.059,TranslationElicitation_spa,3.2.4,Win32,60,5ee3e0ad6b4a780c4b3b39cd,,1,0,80,28,1,79
,,,,,,,,,,,,,,,,,,,,,,,,,,,,,,,,,,,a,17.27199984,A,TRUE,,,,,,,133,estruc,Catalan,Sounds/cat_estruc.mp3,2020-06-13_22h03.32.059,TranslationElicitation_spa,3.2.4,Win32,60,5ee3e0ad6b4a780c4b3b39cd,,1,0,80,28,1,79
,,,,,,,,,,,,,,,,,,,,,,,,,,,,,,,,,,,v,19.02099991,AV,TRUE,,,,,,,133,estruc,Catalan,Sounds/cat_estruc.mp3,2020-06-13_22h03.32.059,TranslationElicitation_spa,3.2.4,Win32,60,5ee3e0ad6b4a780c4b3b39cd,,1,0,80,28,1,79
,,,,,,,,,,,,,,,,,,,,,,,,,,,,,,,,,,,e,19.38199997,AVE,TRUE,,,,,,,133,estruc,Catalan,Sounds/cat_estruc.mp3,2020-06-13_22h03.32.059,TranslationElicitation_spa,3.2.4,Win32,60,5ee3e0ad6b4a780c4b3b39cd,,1,0,80,28,1,79
,,,,,,,,,,,,,,,,,,,,,,,,,,,,,,,,,,,s,19.5619998,AVES,TRUE,,,,,,,133,estruc,Catalan,Sounds/cat_estruc.mp3,2020-06-13_22h03.32.059,TranslationElicitation_spa,3.2.4,Win32,60,5ee3e0ad6b4a780c4b3b39cd,,1,0,80,28,1,79
,,,,,,,,,,,,,,,,,,,,,,,,,,,,,,,,,,,t,19.81999993,AVEST,TRUE,,,,,,,133,estruc,Catalan,Sounds/cat_estruc.mp3,2020-06-13_22h03.32.059,TranslationElicitation_spa,3.2.4,Win32,60,5ee3e0ad6b4a780c4b3b39cd,,1,0,80,28,1,79
,,,,,,,,,,,,,,,,,,,,,,,,,,,,,,,,,,,r,19.92999983,AVESTR,TRUE,,,,,,,133,estruc,Catalan,Sounds/cat_estruc.mp3,2020-06-13_22h03.32.059,TranslationElicitation_spa,3.2.4,Win32,60,5ee3e0ad6b4a780c4b3b39cd,,1,0,80,28,1,79
,,,,,,,,,,,,,,,,,,,,,,,,,,,,,,,,,,,u,20.09699988,AVESTRU,TRUE,,,,,,,133,estruc,Catalan,Sounds/cat_estruc.mp3,2020-06-13_22h03.32.059,TranslationElicitation_spa,3.2.4,Win32,60,5ee3e0ad6b4a780c4b3b39cd,,1,0,80,28,1,79
,,,,,,,,,,,,,,,,,,,,,,,,,,,,,,,,,,,z,20.27999997,AVESTRUZ,TRUE,,,,,,,133,estruc,Catalan,Sounds/cat_estruc.mp3,2020-06-13_22h03.32.059,TranslationElicitation_spa,3.2.4,Win32,60,5ee3e0ad6b4a780c4b3b39cd,,1,0,80,28,1,79
,,,,,,,,,,,,,,,,,,,,,,,,,,,,,,,,,,,return,20.62899995,,TRUE,,,,,,,133,estruc,Catalan,Sounds/cat_estruc.mp3,2020-06-13_22h03.32.059,TranslationElicitation_spa,3.2.4,Win32,60,5ee3e0ad6b4a780c4b3b39cd,20.62899995,1,0,80,28,1,79
,,,,,,,,,,,,,,,,,,,,,,,,,,,,,,,,,,,,,,,,,,,,,133,estruc,Catalan,Sounds/cat_estruc.mp3,2020-06-13_22h03.32.059,TranslationElicitation_spa,3.2.4,Win32,60,5ee3e0ad6b4a780c4b3b39cd,,1,0,80,28,1,79
,,,,,,,,,,,,,,,,,,,,,,,,,,,,,,,,,,,c,1.54399991,C,FALSE,,,,,,,189,zebra,Catalan,Sounds/cat_zebra.mp3,2020-06-13_22h03.32.059,TranslationElicitation_spa,3.2.4,Win32,60,5ee3e0ad6b4a780c4b3b39cd,,1,0,80,79,1,79
,,,,,,,,,,,,,,,,,,,,,,,,,,,,,,,,,,,e,1.763999939,CE,FALSE,,,,,,,189,zebra,Catalan,Sounds/cat_zebra.mp3,2020-06-13_22h03.32.059,TranslationElicitation_spa,3.2.4,Win32,60,5ee3e0ad6b4a780c4b3b39cd,,1,0,80,79,1,79
,,,,,,,,,,,,,,,,,,,,,,,,,,,,,,,,,,,b,1.930000067,CEB,FALSE,,,,,,,189,zebra,Catalan,Sounds/cat_zebra.mp3,2020-06-13_22h03.32.059,TranslationElicitation_spa,3.2.4,Win32,60,5ee3e0ad6b4a780c4b3b39cd,,1,0,80,79,1,79
,,,,,,,,,,,,,,,,,,,,,,,,,,,,,,,,,,,r,2.000999928,CEBR,FALSE,,,,,,,189,zebra,Catalan,Sounds/cat_zebra.mp3,2020-06-13_22h03.32.059,TranslationElicitation_spa,3.2.4,Win32,60,5ee3e0ad6b4a780c4b3b39cd,,1,0,80,79,1,79
,,,,,,,,,,,,,,,,,,,,,,,,,,,,,,,,,,,a,2.147000074,CEBRA,FALSE,,,,,,,189,zebra,Catalan,Sounds/cat_zebra.mp3,2020-06-13_22h03.32.059,TranslationElicitation_spa,3.2.4,Win32,60,5ee3e0ad6b4a780c4b3b39cd,,1,0,80,79,1,79
,,,,,,,,,,,,,,,,,,,,,,,,,,,,,,,,,,,return,2.392999887,,FALSE,,,,,,,189,zebra,Catalan,Sounds/cat_zebra.mp3,2020-06-13_22h03.32.059,TranslationElicitation_spa,3.2.4,Win32,60,5ee3e0ad6b4a780c4b3b39cd,2.392999887,1,0,80,79,1,79
,,,,,,,,,,,,,,,,,,,,,,,,,,,,,,,,,,,,,,,,,,,,,189,zebra,Catalan,Sounds/cat_zebra.mp3,2020-06-13_22h03.32.059,TranslationElicitation_spa,3.2.4,Win32,60,5ee3e0ad6b4a780c4b3b39cd,,1,0,80,79,1,79
,,,,,,,,,,,,,,,,,,,,,,,,,,,,,,,,,,,s,1.513000011,S,FALSE,,,,,,,177,sol,Catalan,Sounds/cat_sol.mp3,2020-06-13_22h03.32.059,TranslationElicitation_spa,3.2.4,Win32,60,5ee3e0ad6b4a780c4b3b39cd,,1,0,80,69,1,79
,,,,,,,,,,,,,,,,,,,,,,,,,,,,,,,,,,,o,1.699999809,SO,FALSE,,,,,,,177,sol,Catalan,Sounds/cat_sol.mp3,2020-06-13_22h03.32.059,TranslationElicitation_spa,3.2.4,Win32,60,5ee3e0ad6b4a780c4b3b39cd,,1,0,80,69,1,79
,,,,,,,,,,,,,,,,,,,,,,,,,,,,,,,,,,,l,1.879999876,SOL,FALSE,,,,,,,177,sol,Catalan,Sounds/cat_sol.mp3,2020-06-13_22h03.32.059,TranslationElicitation_spa,3.2.4,Win32,60,5ee3e0ad6b4a780c4b3b39cd,,1,0,80,69,1,79
,,,,,,,,,,,,,,,,,,,,,,,,,,,,,,,,,,,return,2.146999836,,FALSE,,,,,,,177,sol,Catalan,Sounds/cat_sol.mp3,2020-06-13_22h03.32.059,TranslationElicitation_spa,3.2.4,Win32,60,5ee3e0ad6b4a780c4b3b39cd,2.146999836,1,0,80,69,1,79
,,,,,,,,,,,,,,,,,,,,,,,,,,,,,,,,,,,,,,,,,,,,,177,sol,Catalan,Sounds/cat_sol.mp3,2020-06-13_22h03.32.059,TranslationElicitation_spa,3.2.4,Win32,60,5ee3e0ad6b4a780c4b3b39cd,,1,0,80,69,1,79
,,,,,,,,,,,,,,,,,,,,,,,,,,,,,,,,,,,m,1.314999819,M,FALSE,,,,,,,152,ma,Catalan,Sounds/cat_ma.mp3,2020-06-13_22h03.32.059,TranslationElicitation_spa,3.2.4,Win32,60,5ee3e0ad6b4a780c4b3b39cd,,1,0,80,46,1,79
,,,,,,,,,,,,,,,,,,,,,,,,,,,,,,,,,,,a,1.414999962,MA,FALSE,,,,,,,152,ma,Catalan,Sounds/cat_ma.mp3,2020-06-13_22h03.32.059,TranslationElicitation_spa,3.2.4,Win32,60,5ee3e0ad6b4a780c4b3b39cd,,1,0,80,46,1,79
,,,,,,,,,,,,,,,,,,,,,,,,,,,,,,,,,,,r,1.515999794,MAR,FALSE,,,,,,,152,ma,Catalan,Sounds/cat_ma.mp3,2020-06-13_22h03.32.059,TranslationElicitation_spa,3.2.4,Win32,60,5ee3e0ad6b4a780c4b3b39cd,,1,0,80,46,1,79
,,,,,,,,,,,,,,,,,,,,,,,,,,,,,,,,,,,return,1.855000019,,FALSE,,,,,,,152,ma,Catalan,Sounds/cat_ma.mp3,2020-06-13_22h03.32.059,TranslationElicitation_spa,3.2.4,Win32,60,5ee3e0ad6b4a780c4b3b39cd,1.855000019,1,0,80,46,1,79
,,,,,,,,,,,,,,,,,,,,,,,,,,,,,,,,,,,,,,,,,,,,,152,ma,Catalan,Sounds/cat_ma.mp3,2020-06-13_22h03.32.059,TranslationElicitation_spa,3.2.4,Win32,60,5ee3e0ad6b4a780c4b3b39cd,,1,0,80,46,1,79
,,,,,,,,,,,,,,,,,,,,,,,,,,,,,,,,,,,h,1.358999968,H,FALSE,,,,,,,188,xocolata,Catalan,Sounds/cat_xocolata.mp3,2020-06-13_22h03.32.059,TranslationElicitation_spa,3.2.4,Win32,60,5ee3e0ad6b4a780c4b3b39cd,,1,0,80,78,1,79
,,,,,,,,,,,,,,,,,,,,,,,,,,,,,,,,,,,o,1.515000105,HO,FALSE,,,,,,,188,xocolata,Catalan,Sounds/cat_xocolata.mp3,2020-06-13_22h03.32.059,TranslationElicitation_spa,3.2.4,Win32,60,5ee3e0ad6b4a780c4b3b39cd,,1,0,80,78,1,79
,,,,,,,,,,,,,,,,,,,,,,,,,,,,,,,,,,,c,1.729000092,HOC,FALSE,,,,,,,188,xocolata,Catalan,Sounds/cat_xocolata.mp3,2020-06-13_22h03.32.059,TranslationElicitation_spa,3.2.4,Win32,60,5ee3e0ad6b4a780c4b3b39cd,,1,0,80,78,1,79
,,,,,,,,,,,,,,,,,,,,,,,,,,,,,,,,,,,backspace,2.179000139,H,TRUE,,,,,,,188,xocolata,Catalan,Sounds/cat_xocolata.mp3,2020-06-13_22h03.32.059,TranslationElicitation_spa,3.2.4,Win32,60,5ee3e0ad6b4a780c4b3b39cd,,1,0,80,78,1,79
,,,,,,,,,,,,,,,,,,,,,,,,,,,,,,,,,,,backspace,2.33100009,,TRUE,,,,,,,188,xocolata,Catalan,Sounds/cat_xocolata.mp3,2020-06-13_22h03.32.059,TranslationElicitation_spa,3.2.4,Win32,60,5ee3e0ad6b4a780c4b3b39cd,,1,0,80,78,1,79
,,,,,,,,,,,,,,,,,,,,,,,,,,,,,,,,,,,backspace,2.498000145,,TRUE,,,,,,,188,xocolata,Catalan,Sounds/cat_xocolata.mp3,2020-06-13_22h03.32.059,TranslationElicitation_spa,3.2.4,Win32,60,5ee3e0ad6b4a780c4b3b39cd,,1,0,80,78,1,79
,,,,,,,,,,,,,,,,,,,,,,,,,,,,,,,,,,,c,2.746999979,C,TRUE,,,,,,,188,xocolata,Catalan,Sounds/cat_xocolata.mp3,2020-06-13_22h03.32.059,TranslationElicitation_spa,3.2.4,Win32,60,5ee3e0ad6b4a780c4b3b39cd,,1,0,80,78,1,79
,,,,,,,,,,,,,,,,,,,,,,,,,,,,,,,,,,,h,2.847000122,CH,TRUE,,,,,,,188,xocolata,Catalan,Sounds/cat_xocolata.mp3,2020-06-13_22h03.32.059,TranslationElicitation_spa,3.2.4,Win32,60,5ee3e0ad6b4a780c4b3b39cd,,1,0,80,78,1,79
,,,,,,,,,,,,,,,,,,,,,,,,,,,,,,,,,,,o,3.011000156,CHO,TRUE,,,,,,,188,xocolata,Catalan,Sounds/cat_xocolata.mp3,2020-06-13_22h03.32.059,TranslationElicitation_spa,3.2.4,Win32,60,5ee3e0ad6b4a780c4b3b39cd,,1,0,80,78,1,79
,,,,,,,,,,,,,,,,,,,,,,,,,,,,,,,,,,,c,3.104000092,CHOC,TRUE,,,,,,,188,xocolata,Catalan,Sounds/cat_xocolata.mp3,2020-06-13_22h03.32.059,TranslationElicitation_spa,3.2.4,Win32,60,5ee3e0ad6b4a780c4b3b39cd,,1,0,80,78,1,79
,,,,,,,,,,,,,,,,,,,,,,,,,,,,,,,,,,,o,3.213999987,CHOCO,TRUE,,,,,,,188,xocolata,Catalan,Sounds/cat_xocolata.mp3,2020-06-13_22h03.32.059,TranslationElicitation_spa,3.2.4,Win32,60,5ee3e0ad6b4a780c4b3b39cd,,1,0,80,78,1,79
,,,,,,,,,,,,,,,,,,,,,,,,,,,,,,,,,,,l,3.381000042,CHOCOL,TRUE,,,,,,,188,xocolata,Catalan,Sounds/cat_xocolata.mp3,2020-06-13_22h03.32.059,TranslationElicitation_spa,3.2.4,Win32,60,5ee3e0ad6b4a780c4b3b39cd,,1,0,80,78,1,79
,,,,,,,,,,,,,,,,,,,,,,,,,,,,,,,,,,,a,3.440000057,CHOCOLA,TRUE,,,,,,,188,xocolata,Catalan,Sounds/cat_xocolata.mp3,2020-06-13_22h03.32.059,TranslationElicitation_spa,3.2.4,Win32,60,5ee3e0ad6b4a780c4b3b39cd,,1,0,80,78,1,79
,,,,,,,,,,,,,,,,,,,,,,,,,,,,,,,,,,,t,3.614000082,CHOCOLAT,TRUE,,,,,,,188,xocolata,Catalan,Sounds/cat_xocolata.mp3,2020-06-13_22h03.32.059,TranslationElicitation_spa,3.2.4,Win32,60,5ee3e0ad6b4a780c4b3b39cd,,1,0,80,78,1,79
,,,,,,,,,,,,,,,,,,,,,,,,,,,,,,,,,,,e,3.713999987,CHOCOLATE,TRUE,,,,,,,188,xocolata,Catalan,Sounds/cat_xocolata.mp3,2020-06-13_22h03.32.059,TranslationElicitation_spa,3.2.4,Win32,60,5ee3e0ad6b4a780c4b3b39cd,,1,0,80,78,1,79
,,,,,,,,,,,,,,,,,,,,,,,,,,,,,,,,,,,return,4.08100009,,TRUE,,,,,,,188,xocolata,Catalan,Sounds/cat_xocolata.mp3,2020-06-13_22h03.32.059,TranslationElicitation_spa,3.2.4,Win32,60,5ee3e0ad6b4a780c4b3b39cd,4.08100009,1,0,80,78,1,79
,,,,,,,,,,,,,,,,,,,,,,,,,,,,,,,,,,,,,,,,,,,,,188,xocolata,Catalan,Sounds/cat_xocolata.mp3,2020-06-13_22h03.32.059,TranslationElicitation_spa,3.2.4,Win32,60,5ee3e0ad6b4a780c4b3b39cd,,1,0,80,78,1,79
,,,,,,,,,,,,,,,,,,,,,,,,,,,,,,,,,,,p,13.69599986,P,FALSE,,,,,,,165,pernil,Catalan,Sounds/cat_pernil.mp3,2020-06-13_22h03.32.059,TranslationElicitation_spa,3.2.4,Win32,60,5ee3e0ad6b4a780c4b3b39cd,,1,0,80,58,1,79
,,,,,,,,,,,,,,,,,,,,,,,,,,,,,,,,,,,backspace,15.06200004,,TRUE,,,,,,,165,pernil,Catalan,Sounds/cat_pernil.mp3,2020-06-13_22h03.32.059,TranslationElicitation_spa,3.2.4,Win32,60,5ee3e0ad6b4a780c4b3b39cd,,1,0,80,58,1,79
,,,,,,,,,,,,,,,,,,,,,,,,,,,,,,,,,,,p,16.34299994,P,TRUE,,,,,,,165,pernil,Catalan,Sounds/cat_pernil.mp3,2020-06-13_22h03.32.059,TranslationElicitation_spa,3.2.4,Win32,60,5ee3e0ad6b4a780c4b3b39cd,,1,0,80,58,1,79
,,,,,,,,,,,,,,,,,,,,,,,,,,,,,,,,,,,a,18.14599991,PA,TRUE,,,,,,,165,pernil,Catalan,Sounds/cat_pernil.mp3,2020-06-13_22h03.32.059,TranslationElicitation_spa,3.2.4,Win32,60,5ee3e0ad6b4a780c4b3b39cd,,1,0,80,58,1,79
,,,,,,,,,,,,,,,,,,,,,,,,,,,,,,,,,,,r,18.37899995,PAR,TRUE,,,,,,,165,pernil,Catalan,Sounds/cat_pernil.mp3,2020-06-13_22h03.32.059,TranslationElicitation_spa,3.2.4,Win32,60,5ee3e0ad6b4a780c4b3b39cd,,1,0,80,58,1,79
,,,,,,,,,,,,,,,,,,,,,,,,,,,,,,,,,,,backspace,19.67799997,P,TRUE,,,,,,,165,pernil,Catalan,Sounds/cat_pernil.mp3,2020-06-13_22h03.32.059,TranslationElicitation_spa,3.2.4,Win32,60,5ee3e0ad6b4a780c4b3b39cd,,1,0,80,58,1,79
,,,,,,,,,,,,,,,,,,,,,,,,,,,,,,,,,,,backspace,20.579,,TRUE,,,,,,,165,pernil,Catalan,Sounds/cat_pernil.mp3,2020-06-13_22h03.32.059,TranslationElicitation_spa,3.2.4,Win32,60,5ee3e0ad6b4a780c4b3b39cd,,1,0,80,58,1,79
,,,,,,,,,,,,,,,,,,,,,,,,,,,,,,,,,,,p,22.77999997,P,TRUE,,,,,,,165,pernil,Catalan,Sounds/cat_pernil.mp3,2020-06-13_22h03.32.059,TranslationElicitation_spa,3.2.4,Win32,60,5ee3e0ad6b4a780c4b3b39cd,,1,0,80,58,1,79
,,,,,,,,,,,,,,,,,,,,,,,,,,,,,,,,,,,backspace,24.72799993,,TRUE,,,,,,,165,pernil,Catalan,Sounds/cat_pernil.mp3,2020-06-13_22h03.32.059,TranslationElicitation_spa,3.2.4,Win32,60,5ee3e0ad6b4a780c4b3b39cd,,1,0,80,58,1,79
,,,,,,,,,,,,,,,,,,,,,,,,,,,,,,,,,,,p,26.02900004,P,TRUE,,,,,,,165,pernil,Catalan,Sounds/cat_pernil.mp3,2020-06-13_22h03.32.059,TranslationElicitation_spa,3.2.4,Win32,60,5ee3e0ad6b4a780c4b3b39cd,,1,0,80,58,1,79
,,,,,,,,,,,,,,,,,,,,,,,,,,,,,,,,,,,i,26.92799997,PI,TRUE,,,,,,,165,pernil,Catalan,Sounds/cat_pernil.mp3,2020-06-13_22h03.32.059,TranslationElicitation_spa,3.2.4,Win32,60,5ee3e0ad6b4a780c4b3b39cd,,1,0,80,58,1,79
,,,,,,,,,,,,,,,,,,,,,,,,,,,,,,,,,,,c,27.06200004,PIC,TRUE,,,,,,,165,pernil,Catalan,Sounds/cat_pernil.mp3,2020-06-13_22h03.32.059,TranslationElicitation_spa,3.2.4,Win32,60,5ee3e0ad6b4a780c4b3b39cd,,1,0,80,58,1,79
,,,,,,,,,,,,,,,,,,,,,,,,,,,,,,,,,,,o,27.16199994,PICO,TRUE,,,,,,,165,pernil,Catalan,Sounds/cat_pernil.mp3,2020-06-13_22h03.32.059,TranslationElicitation_spa,3.2.4,Win32,60,5ee3e0ad6b4a780c4b3b39cd,,1,0,80,58,1,79
,,,,,,,,,,,,,,,,,,,,,,,,,,,,,,,,,,,return,27.48699999,,TRUE,,,,,,,165,pernil,Catalan,Sounds/cat_pernil.mp3,2020-06-13_22h03.32.059,TranslationElicitation_spa,3.2.4,Win32,60,5ee3e0ad6b4a780c4b3b39cd,27.48699999,1,0,80,58,1,79
,,,,,,,,,,,,,,,,,,,,,,,,,,,,,,,,,,,,,,,,,,,,,165,pernil,Catalan,Sounds/cat_pernil.mp3,2020-06-13_22h03.32.059,TranslationElicitation_spa,3.2.4,Win32,60,5ee3e0ad6b4a780c4b3b39cd,,1,0,80,58,1,79
,,,,,,,,,,,,,,,,,,,,,,,,,,,,,,,,,,,g,2.227999926,G,FALSE,,,,,,,143,globus,Catalan,Sounds/cat_globus.mp3,2020-06-13_22h03.32.059,TranslationElicitation_spa,3.2.4,Win32,60,5ee3e0ad6b4a780c4b3b39cd,,1,0,80,38,1,79
,,,,,,,,,,,,,,,,,,,,,,,,,,,,,,,,,,,l,2.343999863,GL,FALSE,,,,,,,143,globus,Catalan,Sounds/cat_globus.mp3,2020-06-13_22h03.32.059,TranslationElicitation_spa,3.2.4,Win32,60,5ee3e0ad6b4a780c4b3b39cd,,1,0,80,38,1,79
,,,,,,,,,,,,,,,,,,,,,,,,,,,,,,,,,,,o,2.490999937,GLO,FALSE,,,,,,,143,globus,Catalan,Sounds/cat_globus.mp3,2020-06-13_22h03.32.059,TranslationElicitation_spa,3.2.4,Win32,60,5ee3e0ad6b4a780c4b3b39cd,,1,0,80,38,1,79
,,,,,,,,,,,,,,,,,,,,,,,,,,,,,,,,,,,v,2.644999981,GLOV,FALSE,,,,,,,143,globus,Catalan,Sounds/cat_globus.mp3,2020-06-13_22h03.32.059,TranslationElicitation_spa,3.2.4,Win32,60,5ee3e0ad6b4a780c4b3b39cd,,1,0,80,38,1,79
,,,,,,,,,,,,,,,,,,,,,,,,,,,,,,,,,,,o,2.828999996,GLOVO,FALSE,,,,,,,143,globus,Catalan,Sounds/cat_globus.mp3,2020-06-13_22h03.32.059,TranslationElicitation_spa,3.2.4,Win32,60,5ee3e0ad6b4a780c4b3b39cd,,1,0,80,38,1,79
,,,,,,,,,,,,,,,,,,,,,,,,,,,,,,,,,,,backspace,3.312000036,GLO,TRUE,,,,,,,143,globus,Catalan,Sounds/cat_globus.mp3,2020-06-13_22h03.32.059,TranslationElicitation_spa,3.2.4,Win32,60,5ee3e0ad6b4a780c4b3b39cd,,1,0,80,38,1,79
,,,,,,,,,,,,,,,,,,,,,,,,,,,,,,,,,,,backspace,3.444999933,G,TRUE,,,,,,,143,globus,Catalan,Sounds/cat_globus.mp3,2020-06-13_22h03.32.059,TranslationElicitation_spa,3.2.4,Win32,60,5ee3e0ad6b4a780c4b3b39cd,,1,0,80,38,1,79
,,,,,,,,,,,,,,,,,,,,,,,,,,,,,,,,,,,b,3.628999949,GB,TRUE,,,,,,,143,globus,Catalan,Sounds/cat_globus.mp3,2020-06-13_22h03.32.059,TranslationElicitation_spa,3.2.4,Win32,60,5ee3e0ad6b4a780c4b3b39cd,,1,0,80,38,1,79
,,,,,,,,,,,,,,,,,,,,,,,,,,,,,,,,,,,o,3.74000001,GBO,TRUE,,,,,,,143,globus,Catalan,Sounds/cat_globus.mp3,2020-06-13_22h03.32.059,TranslationElicitation_spa,3.2.4,Win32,60,5ee3e0ad6b4a780c4b3b39cd,,1,0,80,38,1,79
,,,,,,,,,,,,,,,,,,,,,,,,,,,,,,,,,,,backspace,4.111999989,G,TRUE,,,,,,,143,globus,Catalan,Sounds/cat_globus.mp3,2020-06-13_22h03.32.059,TranslationElicitation_spa,3.2.4,Win32,60,5ee3e0ad6b4a780c4b3b39cd,,1,0,80,38,1,79
,,,,,,,,,,,,,,,,,,,,,,,,,,,,,,,,,,,l,4.812999964,GL,TRUE,,,,,,,143,globus,Catalan,Sounds/cat_globus.mp3,2020-06-13_22h03.32.059,TranslationElicitation_spa,3.2.4,Win32,60,5ee3e0ad6b4a780c4b3b39cd,,1,0,80,38,1,79
,,,,,,,,,,,,,,,,,,,,,,,,,,,,,,,,,,,o,4.961999893,GLO,TRUE,,,,,,,143,globus,Catalan,Sounds/cat_globus.mp3,2020-06-13_22h03.32.059,TranslationElicitation_spa,3.2.4,Win32,60,5ee3e0ad6b4a780c4b3b39cd,,1,0,80,38,1,79
,,,,,,,,,,,,,,,,,,,,,,,,,,,,,,,,,,,b,5.044999838,GLOB,TRUE,,,,,,,143,globus,Catalan,Sounds/cat_globus.mp3,2020-06-13_22h03.32.059,TranslationElicitation_spa,3.2.4,Win32,60,5ee3e0ad6b4a780c4b3b39cd,,1,0,80,38,1,79
,,,,,,,,,,,,,,,,,,,,,,,,,,,,,,,,,,,o,5.178999901,GLOBO,TRUE,,,,,,,143,globus,Catalan,Sounds/cat_globus.mp3,2020-06-13_22h03.32.059,TranslationElicitation_spa,3.2.4,Win32,60,5ee3e0ad6b4a780c4b3b39cd,,1,0,80,38,1,79
,,,,,,,,,,,,,,,,,,,,,,,,,,,,,,,,,,,s,5.345000029,GLOBOS,TRUE,,,,,,,143,globus,Catalan,Sounds/cat_globus.mp3,2020-06-13_22h03.32.059,TranslationElicitation_spa,3.2.4,Win32,60,5ee3e0ad6b4a780c4b3b39cd,,1,0,80,38,1,79
,,,,,,,,,,,,,,,,,,,,,,,,,,,,,,,,,,,return,5.645999908,,TRUE,,,,,,,143,globus,Catalan,Sounds/cat_globus.mp3,2020-06-13_22h03.32.059,TranslationElicitation_spa,3.2.4,Win32,60,5ee3e0ad6b4a780c4b3b39cd,5.645999908,1,0,80,38,1,79
,,,,,,,,,,,,,,,,,,,,,,,,,,,,,,,,,,,,,,,,,,,,,143,globus,Catalan,Sounds/cat_globus.mp3,2020-06-13_22h03.32.059,TranslationElicitation_spa,3.2.4,Win32,60,5ee3e0ad6b4a780c4b3b39cd,,1,0,80,38,1,79
,,,,,,,,,,,,,,,,,,,,,,,,,,,,,,,,,,,h,5.580000162,H,FALSE,,,,,,,141,gerd,Catalan,Sounds/cat_gerd.mp3,2020-06-13_22h03.32.059,TranslationElicitation_spa,3.2.4,Win32,60,5ee3e0ad6b4a780c4b3b39cd,,1,0,80,36,1,79
,,,,,,,,,,,,,,,,,,,,,,,,,,,,,,,,,,,i,5.749000072,HI,FALSE,,,,,,,141,gerd,Catalan,Sounds/cat_gerd.mp3,2020-06-13_22h03.32.059,TranslationElicitation_spa,3.2.4,Win32,60,5ee3e0ad6b4a780c4b3b39cd,,1,0,80,36,1,79
,,,,,,,,,,,,,,,,,,,,,,,,,,,,,,,,,,,e,5.986000061,HIE,FALSE,,,,,,,141,gerd,Catalan,Sounds/cat_gerd.mp3,2020-06-13_22h03.32.059,TranslationElicitation_spa,3.2.4,Win32,60,5ee3e0ad6b4a780c4b3b39cd,,1,0,80,36,1,79
,,,,,,,,,,,,,,,,,,,,,,,,,,,,,,,,,,,b,6.09800005,HIEB,FALSE,,,,,,,141,gerd,Catalan,Sounds/cat_gerd.mp3,2020-06-13_22h03.32.059,TranslationElicitation_spa,3.2.4,Win32,60,5ee3e0ad6b4a780c4b3b39cd,,1,0,80,36,1,79
,,,,,,,,,,,,,,,,,,,,,,,,,,,,,,,,,,,a,6.282000065,HIEBA,FALSE,,,,,,,141,gerd,Catalan,Sounds/cat_gerd.mp3,2020-06-13_22h03.32.059,TranslationElicitation_spa,3.2.4,Win32,60,5ee3e0ad6b4a780c4b3b39cd,,1,0,80,36,1,79
,,,,,,,,,,,,,,,,,,,,,,,,,,,,,,,,,,,backspace,7.448000193,HIE,TRUE,,,,,,,141,gerd,Catalan,Sounds/cat_gerd.mp3,2020-06-13_22h03.32.059,TranslationElicitation_spa,3.2.4,Win32,60,5ee3e0ad6b4a780c4b3b39cd,,1,0,80,36,1,79
,,,,,,,,,,,,,,,,,,,,,,,,,,,,,,,,,,,backspace,7.61500001,H,TRUE,,,,,,,141,gerd,Catalan,Sounds/cat_gerd.mp3,2020-06-13_22h03.32.059,TranslationElicitation_spa,3.2.4,Win32,60,5ee3e0ad6b4a780c4b3b39cd,,1,0,80,36,1,79
,,,,,,,,,,,,,,,,,,,,,,,,,,,,,,,,,,,r,7.832000017,HR,TRUE,,,,,,,141,gerd,Catalan,Sounds/cat_gerd.mp3,2020-06-13_22h03.32.059,TranslationElicitation_spa,3.2.4,Win32,60,5ee3e0ad6b4a780c4b3b39cd,,1,0,80,36,1,79
,,,,,,,,,,,,,,,,,,,,,,,,,,,,,,,,,,,backspace,8.203000069,,TRUE,,,,,,,141,gerd,Catalan,Sounds/cat_gerd.mp3,2020-06-13_22h03.32.059,TranslationElicitation_spa,3.2.4,Win32,60,5ee3e0ad6b4a780c4b3b39cd,,1,0,80,36,1,79
,,,,,,,,,,,,,,,,,,,,,,,,,,,,,,,,,,,i,8.531000137,I,TRUE,,,,,,,141,gerd,Catalan,Sounds/cat_gerd.mp3,2020-06-13_22h03.32.059,TranslationElicitation_spa,3.2.4,Win32,60,5ee3e0ad6b4a780c4b3b39cd,,1,0,80,36,1,79
,,,,,,,,,,,,,,,,,,,,,,,,,,,,,,,,,,,e,8.648000002,IE,TRUE,,,,,,,141,gerd,Catalan,Sounds/cat_gerd.mp3,2020-06-13_22h03.32.059,TranslationElicitation_spa,3.2.4,Win32,60,5ee3e0ad6b4a780c4b3b39cd,,1,0,80,36,1,79
,,,,,,,,,,,,,,,,,,,,,,,,,,,,,,,,,,,r,8.748000145,IER,TRUE,,,,,,,141,gerd,Catalan,Sounds/cat_gerd.mp3,2020-06-13_22h03.32.059,TranslationElicitation_spa,3.2.4,Win32,60,5ee3e0ad6b4a780c4b3b39cd,,1,0,80,36,1,79
,,,,,,,,,,,,,,,,,,,,,,,,,,,,,,,,,,,backspace,9.149000168,I,TRUE,,,,,,,141,gerd,Catalan,Sounds/cat_gerd.mp3,2020-06-13_22h03.32.059,TranslationElicitation_spa,3.2.4,Win32,60,5ee3e0ad6b4a780c4b3b39cd,,1,0,80,36,1,79
,,,,,,,,,,,,,,,,,,,,,,,,,,,,,,,,,,,backspace,9.347000122,,TRUE,,,,,,,141,gerd,Catalan,Sounds/cat_gerd.mp3,2020-06-13_22h03.32.059,TranslationElicitation_spa,3.2.4,Win32,60,5ee3e0ad6b4a780c4b3b39cd,,1,0,80,36,1,79
,,,,,,,,,,,,,,,,,,,,,,,,,,,,,,,,,,,backspace,9.492000103,,TRUE,,,,,,,141,gerd,Catalan,Sounds/cat_gerd.mp3,2020-06-13_22h03.32.059,TranslationElicitation_spa,3.2.4,Win32,60,5ee3e0ad6b4a780c4b3b39cd,,1,0,80,36,1,79
,,,,,,,,,,,,,,,,,,,,,,,,,,,,,,,,,,,h,10.11100006,H,TRUE,,,,,,,141,gerd,Catalan,Sounds/cat_gerd.mp3,2020-06-13_22h03.32.059,TranslationElicitation_spa,3.2.4,Win32,60,5ee3e0ad6b4a780c4b3b39cd,,1,0,80,36,1,79
,,,,,,,,,,,,,,,,,,,,,,,,,,,,,,,,,,,i,10.19800019,HI,TRUE,,,,,,,141,gerd,Catalan,Sounds/cat_gerd.mp3,2020-06-13_22h03.32.059,TranslationElicitation_spa,3.2.4,Win32,60,5ee3e0ad6b4a780c4b3b39cd,,1,0,80,36,1,79
,,,,,,,,,,,,,,,,,,,,,,,,,,,,,,,,,,,e,10.398,HIE,TRUE,,,,,,,141,gerd,Catalan,Sounds/cat_gerd.mp3,2020-06-13_22h03.32.059,TranslationElicitation_spa,3.2.4,Win32,60,5ee3e0ad6b4a780c4b3b39cd,,1,0,80,36,1,79
,,,,,,,,,,,,,,,,,,,,,,,,,,,,,,,,,,,b,10.5480001,HIEB,TRUE,,,,,,,141,gerd,Catalan,Sounds/cat_gerd.mp3,2020-06-13_22h03.32.059,TranslationElicitation_spa,3.2.4,Win32,60,5ee3e0ad6b4a780c4b3b39cd,,1,0,80,36,1,79
,,,,,,,,,,,,,,,,,,,,,,,,,,,,,,,,,,,a,10.66300011,HIEBA,TRUE,,,,,,,141,gerd,Catalan,Sounds/cat_gerd.mp3,2020-06-13_22h03.32.059,TranslationElicitation_spa,3.2.4,Win32,60,5ee3e0ad6b4a780c4b3b39cd,,1,0,80,36,1,79
,,,,,,,,,,,,,,,,,,,,,,,,,,,,,,,,,,,backspace,11.24699998,HIE,TRUE,,,,,,,141,gerd,Catalan,Sounds/cat_gerd.mp3,2020-06-13_22h03.32.059,TranslationElicitation_spa,3.2.4,Win32,60,5ee3e0ad6b4a780c4b3b39cd,,1,0,80,36,1,79
,,,,,,,,,,,,,,,,,,,,,,,,,,,,,,,,,,,backspace,11.34800005,H,TRUE,,,,,,,141,gerd,Catalan,Sounds/cat_gerd.mp3,2020-06-13_22h03.32.059,TranslationElicitation_spa,3.2.4,Win32,60,5ee3e0ad6b4a780c4b3b39cd,,1,0,80,36,1,79
,,,,,,,,,,,,,,,,,,,,,,,,,,,,,,,,,,,r,11.52200007,HR,TRUE,,,,,,,141,gerd,Catalan,Sounds/cat_gerd.mp3,2020-06-13_22h03.32.059,TranslationElicitation_spa,3.2.4,Win32,60,5ee3e0ad6b4a780c4b3b39cd,,1,0,80,36,1,79
,,,,,,,,,,,,,,,,,,,,,,,,,,,,,,,,,,,b,11.69700003,HRB,TRUE,,,,,,,141,gerd,Catalan,Sounds/cat_gerd.mp3,2020-06-13_22h03.32.059,TranslationElicitation_spa,3.2.4,Win32,60,5ee3e0ad6b4a780c4b3b39cd,,1,0,80,36,1,79
,,,,,,,,,,,,,,,,,,,,,,,,,,,,,,,,,,,backspace,12.09800005,H,TRUE,,,,,,,141,gerd,Catalan,Sounds/cat_gerd.mp3,2020-06-13_22h03.32.059,TranslationElicitation_spa,3.2.4,Win32,60,5ee3e0ad6b4a780c4b3b39cd,,1,0,80,36,1,79
,,,,,,,,,,,,,,,,,,,,,,,,,,,,,,,,,,,backspace,12.23200011,,TRUE,,,,,,,141,gerd,Catalan,Sounds/cat_gerd.mp3,2020-06-13_22h03.32.059,TranslationElicitation_spa,3.2.4,Win32,60,5ee3e0ad6b4a780c4b3b39cd,,1,0,80,36,1,79
,,,,,,,,,,,,,,,,,,,,,,,,,,,,,,,,,,,i,12.48100019,I,TRUE,,,,,,,141,gerd,Catalan,Sounds/cat_gerd.mp3,2020-06-13_22h03.32.059,TranslationElicitation_spa,3.2.4,Win32,60,5ee3e0ad6b4a780c4b3b39cd,,1,0,80,36,1,79
,,,,,,,,,,,,,,,,,,,,,,,,,,,,,,,,,,,e,12.6650002,IE,TRUE,,,,,,,141,gerd,Catalan,Sounds/cat_gerd.mp3,2020-06-13_22h03.32.059,TranslationElicitation_spa,3.2.4,Win32,60,5ee3e0ad6b4a780c4b3b39cd,,1,0,80,36,1,79
,,,,,,,,,,,,,,,,,,,,,,,,,,,,,,,,,,,backspace,13.01300001,,TRUE,,,,,,,141,gerd,Catalan,Sounds/cat_gerd.mp3,2020-06-13_22h03.32.059,TranslationElicitation_spa,3.2.4,Win32,60,5ee3e0ad6b4a780c4b3b39cd,,1,0,80,36,1,79
,,,,,,,,,,,,,,,,,,,,,,,,,,,,,,,,,,,backspace,13.1170001,,TRUE,,,,,,,141,gerd,Catalan,Sounds/cat_gerd.mp3,2020-06-13_22h03.32.059,TranslationElicitation_spa,3.2.4,Win32,60,5ee3e0ad6b4a780c4b3b39cd,,1,0,80,36,1,79
,,,,,,,,,,,,,,,,,,,,,,,,,,,,,,,,,,,h,13.398,H,TRUE,,,,,,,141,gerd,Catalan,Sounds/cat_gerd.mp3,2020-06-13_22h03.32.059,TranslationElicitation_spa,3.2.4,Win32,60,5ee3e0ad6b4a780c4b3b39cd,,1,0,80,36,1,79
,,,,,,,,,,,,,,,,,,,,,,,,,,,,,,,,,,,i,13.53100014,HI,TRUE,,,,,,,141,gerd,Catalan,Sounds/cat_gerd.mp3,2020-06-13_22h03.32.059,TranslationElicitation_spa,3.2.4,Win32,60,5ee3e0ad6b4a780c4b3b39cd,,1,0,80,36,1,79
,,,,,,,,,,,,,,,,,,,,,,,,,,,,,,,,,,,e,13.63199997,HIE,TRUE,,,,,,,141,gerd,Catalan,Sounds/cat_gerd.mp3,2020-06-13_22h03.32.059,TranslationElicitation_spa,3.2.4,Win32,60,5ee3e0ad6b4a780c4b3b39cd,,1,0,80,36,1,79
,,,,,,,,,,,,,,,,,,,,,,,,,,,,,,,,,,,r,13.69700003,HIER,TRUE,,,,,,,141,gerd,Catalan,Sounds/cat_gerd.mp3,2020-06-13_22h03.32.059,TranslationElicitation_spa,3.2.4,Win32,60,5ee3e0ad6b4a780c4b3b39cd,,1,0,80,36,1,79
,,,,,,,,,,,,,,,,,,,,,,,,,,,,,,,,,,,b,13.83100009,HIERB,TRUE,,,,,,,141,gerd,Catalan,Sounds/cat_gerd.mp3,2020-06-13_22h03.32.059,TranslationElicitation_spa,3.2.4,Win32,60,5ee3e0ad6b4a780c4b3b39cd,,1,0,80,36,1,79
,,,,,,,,,,,,,,,,,,,,,,,,,,,,,,,,,,,a,13.98100019,HIERBA,TRUE,,,,,,,141,gerd,Catalan,Sounds/cat_gerd.mp3,2020-06-13_22h03.32.059,TranslationElicitation_spa,3.2.4,Win32,60,5ee3e0ad6b4a780c4b3b39cd,,1,0,80,36,1,79
,,,,,,,,,,,,,,,,,,,,,,,,,,,,,,,,,,,return,14.42200017,,TRUE,,,,,,,141,gerd,Catalan,Sounds/cat_gerd.mp3,2020-06-13_22h03.32.059,TranslationElicitation_spa,3.2.4,Win32,60,5ee3e0ad6b4a780c4b3b39cd,14.42200017,1,0,80,36,1,79
,,,,,,,,,,,,,,,,,,,,,,,,,,,,,,,,,,,,,,,,,,,,,141,gerd,Catalan,Sounds/cat_gerd.mp3,2020-06-13_22h03.32.059,TranslationElicitation_spa,3.2.4,Win32,60,5ee3e0ad6b4a780c4b3b39cd,,1,0,80,36,1,79
,,,,,,,,,,,,,,,,,,,,,,,,,,,,,,,,,,,g,1.430999994,G,FALSE,,,,,,,110,berenar,Catalan,Sounds/cat_berenar.mp3,2020-06-13_22h03.32.059,TranslationElicitation_spa,3.2.4,Win32,60,5ee3e0ad6b4a780c4b3b39cd,,1,0,80,5,1,79
,,,,,,,,,,,,,,,,,,,,,,,,,,,,,,,,,,,r,1.588999987,GR,FALSE,,,,,,,110,berenar,Catalan,Sounds/cat_berenar.mp3,2020-06-13_22h03.32.059,TranslationElicitation_spa,3.2.4,Win32,60,5ee3e0ad6b4a780c4b3b39cd,,1,0,80,5,1,79
,,,,,,,,,,,,,,,,,,,,,,,,,,,,,,,,,,,a,1.913000107,GRA,FALSE,,,,,,,110,berenar,Catalan,Sounds/cat_berenar.mp3,2020-06-13_22h03.32.059,TranslationElicitation_spa,3.2.4,Win32,60,5ee3e0ad6b4a780c4b3b39cd,,1,0,80,5,1,79
,,,,,,,,,,,,,,,,,,,,,,,,,,,,,,,,,,,n,2.197000027,GRAN,FALSE,,,,,,,110,berenar,Catalan,Sounds/cat_berenar.mp3,2020-06-13_22h03.32.059,TranslationElicitation_spa,3.2.4,Win32,60,5ee3e0ad6b4a780c4b3b39cd,,1,0,80,5,1,79
,,,,,,,,,,,,,,,,,,,,,,,,,,,,,,,,,,,a,2.315000057,GRANA,FALSE,,,,,,,110,berenar,Catalan,Sounds/cat_berenar.mp3,2020-06-13_22h03.32.059,TranslationElicitation_spa,3.2.4,Win32,60,5ee3e0ad6b4a780c4b3b39cd,,1,0,80,5,1,79
,,,,,,,,,,,,,,,,,,,,,,,,,,,,,,,,,,,d,2.397000074,GRANAD,FALSE,,,,,,,110,berenar,Catalan,Sounds/cat_berenar.mp3,2020-06-13_22h03.32.059,TranslationElicitation_spa,3.2.4,Win32,60,5ee3e0ad6b4a780c4b3b39cd,,1,0,80,5,1,79
,,,,,,,,,,,,,,,,,,,,,,,,,,,,,,,,,,,a,2.512000084,GRANADA,FALSE,,,,,,,110,berenar,Catalan,Sounds/cat_berenar.mp3,2020-06-13_22h03.32.059,TranslationElicitation_spa,3.2.4,Win32,60,5ee3e0ad6b4a780c4b3b39cd,,1,0,80,5,1,79
,,,,,,,,,,,,,,,,,,,,,,,,,,,,,,,,,,,return,3.729000092,,FALSE,,,,,,,110,berenar,Catalan,Sounds/cat_berenar.mp3,2020-06-13_22h03.32.059,TranslationElicitation_spa,3.2.4,Win32,60,5ee3e0ad6b4a780c4b3b39cd,3.729000092,1,0,80,5,1,79
,,,,,,,,,,,,,,,,,,,,,,,,,,,,,,,,,,,,,,,,,,,,,110,berenar,Catalan,Sounds/cat_berenar.mp3,2020-06-13_22h03.32.059,TranslationElicitation_spa,3.2.4,Win32,60,5ee3e0ad6b4a780c4b3b39cd,,1,0,80,5,1,79
,,,,,,,,,,,,,,,,,,,,,,,,,,,,,,,,,,,o,2.095000029,O,FALSE,,,,,,,135,formiga,Catalan,Sounds/cat_formiga.mp3,2020-06-13_22h03.32.059,TranslationElicitation_spa,3.2.4,Win32,60,5ee3e0ad6b4a780c4b3b39cd,,1,0,80,30,1,79
,,,,,,,,,,,,,,,,,,,,,,,,,,,,,,,,,,,backspace,2.618000031,,TRUE,,,,,,,135,formiga,Catalan,Sounds/cat_formiga.mp3,2020-06-13_22h03.32.059,TranslationElicitation_spa,3.2.4,Win32,60,5ee3e0ad6b4a780c4b3b39cd,,1,0,80,30,1,79
,,,,,,,,,,,,,,,,,,,,,,,,,,,,,,,,,,,h,2.698000193,H,TRUE,,,,,,,135,formiga,Catalan,Sounds/cat_formiga.mp3,2020-06-13_22h03.32.059,TranslationElicitation_spa,3.2.4,Win32,60,5ee3e0ad6b4a780c4b3b39cd,,1,0,80,30,1,79
,,,,,,,,,,,,,,,,,,,,,,,,,,,,,,,,,,,o,3.263000011,HO,TRUE,,,,,,,135,formiga,Catalan,Sounds/cat_formiga.mp3,2020-06-13_22h03.32.059,TranslationElicitation_spa,3.2.4,Win32,60,5ee3e0ad6b4a780c4b3b39cd,,1,0,80,30,1,79
,,,,,,,,,,,,,,,,,,,,,,,,,,,,,,,,,,,r,3.443000078,HOR,TRUE,,,,,,,135,formiga,Catalan,Sounds/cat_formiga.mp3,2020-06-13_22h03.32.059,TranslationElicitation_spa,3.2.4,Win32,60,5ee3e0ad6b4a780c4b3b39cd,,1,0,80,30,1,79
,,,,,,,,,,,,,,,,,,,,,,,,,,,,,,,,,,,m,3.592000008,HORM,TRUE,,,,,,,135,formiga,Catalan,Sounds/cat_formiga.mp3,2020-06-13_22h03.32.059,TranslationElicitation_spa,3.2.4,Win32,60,5ee3e0ad6b4a780c4b3b39cd,,1,0,80,30,1,79
,,,,,,,,,,,,,,,,,,,,,,,,,,,,,,,,,,,i,3.773000002,HORMI,TRUE,,,,,,,135,formiga,Catalan,Sounds/cat_formiga.mp3,2020-06-13_22h03.32.059,TranslationElicitation_spa,3.2.4,Win32,60,5ee3e0ad6b4a780c4b3b39cd,,1,0,80,30,1,79
,,,,,,,,,,,,,,,,,,,,,,,,,,,,,,,,,,,g,3.921000004,HORMIG,TRUE,,,,,,,135,formiga,Catalan,Sounds/cat_formiga.mp3,2020-06-13_22h03.32.059,TranslationElicitation_spa,3.2.4,Win32,60,5ee3e0ad6b4a780c4b3b39cd,,1,0,80,30,1,79
,,,,,,,,,,,,,,,,,,,,,,,,,,,,,,,,,,,u,3.996000051,HORMIGU,TRUE,,,,,,,135,formiga,Catalan,Sounds/cat_formiga.mp3,2020-06-13_22h03.32.059,TranslationElicitation_spa,3.2.4,Win32,60,5ee3e0ad6b4a780c4b3b39cd,,1,0,80,30,1,79
,,,,,,,,,,,,,,,,,,,,,,,,,,,,,,,,,,,a,4.185000181,HORMIGUA,TRUE,,,,,,,135,formiga,Catalan,Sounds/cat_formiga.mp3,2020-06-13_22h03.32.059,TranslationElicitation_spa,3.2.4,Win32,60,5ee3e0ad6b4a780c4b3b39cd,,1,0,80,30,1,79
,,,,,,,,,,,,,,,,,,,,,,,,,,,,,,,,,,,backspace,5.016000032,HORMIG,TRUE,,,,,,,135,formiga,Catalan,Sounds/cat_formiga.mp3,2020-06-13_22h03.32.059,TranslationElicitation_spa,3.2.4,Win32,60,5ee3e0ad6b4a780c4b3b39cd,,1,0,80,30,1,79
,,,,,,,,,,,,,,,,,,,,,,,,,,,,,,,,,,,backspace,5.183000088,HORM,TRUE,,,,,,,135,formiga,Catalan,Sounds/cat_formiga.mp3,2020-06-13_22h03.32.059,TranslationElicitation_spa,3.2.4,Win32,60,5ee3e0ad6b4a780c4b3b39cd,,1,0,80,30,1,79
,,,,,,,,,,,,,,,,,,,,,,,,,,,,,,,,,,,a,5.398000002,HORMA,TRUE,,,,,,,135,formiga,Catalan,Sounds/cat_formiga.mp3,2020-06-13_22h03.32.059,TranslationElicitation_spa,3.2.4,Win32,60,5ee3e0ad6b4a780c4b3b39cd,,1,0,80,30,1,79
,,,,,,,,,,,,,,,,,,,,,,,,,,,,,,,,,,,backspace,5.808000088,HOR,TRUE,,,,,,,135,formiga,Catalan,Sounds/cat_formiga.mp3,2020-06-13_22h03.32.059,TranslationElicitation_spa,3.2.4,Win32,60,5ee3e0ad6b4a780c4b3b39cd,,1,0,80,30,1,79
,,,,,,,,,,,,,,,,,,,,,,,,,,,,,,,,,,,m,7.43200016,HORM,TRUE,,,,,,,135,formiga,Catalan,Sounds/cat_formiga.mp3,2020-06-13_22h03.32.059,TranslationElicitation_spa,3.2.4,Win32,60,5ee3e0ad6b4a780c4b3b39cd,,1,0,80,30,1,79
,,,,,,,,,,,,,,,,,,,,,,,,,,,,,,,,,,,i,7.61500001,HORMI,TRUE,,,,,,,135,formiga,Catalan,Sounds/cat_formiga.mp3,2020-06-13_22h03.32.059,TranslationElicitation_spa,3.2.4,Win32,60,5ee3e0ad6b4a780c4b3b39cd,,1,0,80,30,1,79
,,,,,,,,,,,,,,,,,,,,,,,,,,,,,,,,,,,g,7.833000183,HORMIG,TRUE,,,,,,,135,formiga,Catalan,Sounds/cat_formiga.mp3,2020-06-13_22h03.32.059,TranslationElicitation_spa,3.2.4,Win32,60,5ee3e0ad6b4a780c4b3b39cd,,1,0,80,30,1,79
,,,,,,,,,,,,,,,,,,,,,,,,,,,,,,,,,,,a,8.049000025,HORMIGA,TRUE,,,,,,,135,formiga,Catalan,Sounds/cat_formiga.mp3,2020-06-13_22h03.32.059,TranslationElicitation_spa,3.2.4,Win32,60,5ee3e0ad6b4a780c4b3b39cd,,1,0,80,30,1,79
,,,,,,,,,,,,,,,,,,,,,,,,,,,,,,,,,,,return,8.360000134,,TRUE,,,,,,,135,formiga,Catalan,Sounds/cat_formiga.mp3,2020-06-13_22h03.32.059,TranslationElicitation_spa,3.2.4,Win32,60,5ee3e0ad6b4a780c4b3b39cd,8.360000134,1,0,80,30,1,79
,,,,,,,,,,,,,,,,,,,,,,,,,,,,,,,,,,,,,,,,,,,,,135,formiga,Catalan,Sounds/cat_formiga.mp3,2020-06-13_22h03.32.059,TranslationElicitation_spa,3.2.4,Win32,60,5ee3e0ad6b4a780c4b3b39cd,,1,0,80,30,1,79
,,,,,,,,,,,,,,,,,,,,,,,,,,,,,,,,,,,v,1.866000175,V,FALSE,,,,,,,116,bolquer,Catalan,Sounds/cat_bolquer.mp3,2020-06-13_22h03.32.059,TranslationElicitation_spa,3.2.4,Win32,60,5ee3e0ad6b4a780c4b3b39cd,,1,0,80,11,1,79
,,,,,,,,,,,,,,,,,,,,,,,,,,,,,,,,,,,o,2.003000021,VO,FALSE,,,,,,,116,bolquer,Catalan,Sounds/cat_bolquer.mp3,2020-06-13_22h03.32.059,TranslationElicitation_spa,3.2.4,Win32,60,5ee3e0ad6b4a780c4b3b39cd,,1,0,80,11,1,79
,,,,,,,,,,,,,,,,,,,,,,,,,,,,,,,,,,,l,2.150000095,VOL,FALSE,,,,,,,116,bolquer,Catalan,Sounds/cat_bolquer.mp3,2020-06-13_22h03.32.059,TranslationElicitation_spa,3.2.4,Win32,60,5ee3e0ad6b4a780c4b3b39cd,,1,0,80,11,1,79
,,,,,,,,,,,,,,,,,,,,,,,,,,,,,,,,,,,v,2.258000135,VOLV,FALSE,,,,,,,116,bolquer,Catalan,Sounds/cat_bolquer.mp3,2020-06-13_22h03.32.059,TranslationElicitation_spa,3.2.4,Win32,60,5ee3e0ad6b4a780c4b3b39cd,,1,0,80,11,1,79
,,,,,,,,,,,,,,,,,,,,,,,,,,,,,,,,,,,backspace,2.899000168,VO,TRUE,,,,,,,116,bolquer,Catalan,Sounds/cat_bolquer.mp3,2020-06-13_22h03.32.059,TranslationElicitation_spa,3.2.4,Win32,60,5ee3e0ad6b4a780c4b3b39cd,,1,0,80,11,1,79
,,,,,,,,,,,,,,,,,,,,,,,,,,,,,,,,,,,c,3.034000158,VOC,TRUE,,,,,,,116,bolquer,Catalan,Sounds/cat_bolquer.mp3,2020-06-13_22h03.32.059,TranslationElicitation_spa,3.2.4,Win32,60,5ee3e0ad6b4a780c4b3b39cd,,1,0,80,11,1,79
,,,,,,,,,,,,,,,,,,,,,,,,,,,,,,,,,,,a,3.163000107,VOCA,TRUE,,,,,,,116,bolquer,Catalan,Sounds/cat_bolquer.mp3,2020-06-13_22h03.32.059,TranslationElicitation_spa,3.2.4,Win32,60,5ee3e0ad6b4a780c4b3b39cd,,1,0,80,11,1,79
,,,,,,,,,,,,,,,,,,,,,,,,,,,,,,,,,,,n,3.284000158,VOCAN,TRUE,,,,,,,116,bolquer,Catalan,Sounds/cat_bolquer.mp3,2020-06-13_22h03.32.059,TranslationElicitation_spa,3.2.4,Win32,60,5ee3e0ad6b4a780c4b3b39cd,,1,0,80,11,1,79
,,,,,,,,,,,,,,,,,,,,,,,,,,,,,,,,,,,backspace,3.782999992,VOC,TRUE,,,,,,,116,bolquer,Catalan,Sounds/cat_bolquer.mp3,2020-06-13_22h03.32.059,TranslationElicitation_spa,3.2.4,Win32,60,5ee3e0ad6b4a780c4b3b39cd,,1,0,80,11,1,79
,,,,,,,,,,,,,,,,,,,,,,,,,,,,,,,,,,,backspace,3.930000067,V,TRUE,,,,,,,116,bolquer,Catalan,Sounds/cat_bolquer.mp3,2020-06-13_22h03.32.059,TranslationElicitation_spa,3.2.4,Win32,60,5ee3e0ad6b4a780c4b3b39cd,,1,0,80,11,1,79
,,,,,,,,,,,,,,,,,,,,,,,,,,,,,,,,,,,o,4.747000217,VO,TRUE,,,,,,,116,bolquer,Catalan,Sounds/cat_bolquer.mp3,2020-06-13_22h03.32.059,TranslationElicitation_spa,3.2.4,Win32,60,5ee3e0ad6b4a780c4b3b39cd,,1,0,80,11,1,79
,,,,,,,,,,,,,,,,,,,,,,,,,,,,,,,,,,,l,4.933000088,VOL,TRUE,,,,,,,116,bolquer,Catalan,Sounds/cat_bolquer.mp3,2020-06-13_22h03.32.059,TranslationElicitation_spa,3.2.4,Win32,60,5ee3e0ad6b4a780c4b3b39cd,,1,0,80,11,1,79
,,,,,,,,,,,,,,,,,,,,,,,,,,,,,,,,,,,c,5.284000158,VOLC,TRUE,,,,,,,116,bolquer,Catalan,Sounds/cat_bolquer.mp3,2020-06-13_22h03.32.059,TranslationElicitation_spa,3.2.4,Win32,60,5ee3e0ad6b4a780c4b3b39cd,,1,0,80,11,1,79
,,,,,,,,,,,,,,,,,,,,,,,,,,,,,,,,,,,a,5.481000185,VOLCA,TRUE,,,,,,,116,bolquer,Catalan,Sounds/cat_bolquer.mp3,2020-06-13_22h03.32.059,TranslationElicitation_spa,3.2.4,Win32,60,5ee3e0ad6b4a780c4b3b39cd,,1,0,80,11,1,79
,,,,,,,,,,,,,,,,,,,,,,,,,,,,,,,,,,,n,5.535000086,VOLCAN,TRUE,,,,,,,116,bolquer,Catalan,Sounds/cat_bolquer.mp3,2020-06-13_22h03.32.059,TranslationElicitation_spa,3.2.4,Win32,60,5ee3e0ad6b4a780c4b3b39cd,,1,0,80,11,1,79
,,,,,,,,,,,,,,,,,,,,,,,,,,,,,,,,,,,return,5.9150002,,TRUE,,,,,,,116,bolquer,Catalan,Sounds/cat_bolquer.mp3,2020-06-13_22h03.32.059,TranslationElicitation_spa,3.2.4,Win32,60,5ee3e0ad6b4a780c4b3b39cd,5.9150002,1,0,80,11,1,79
,,,,,,,,,,,,,,,,,,,,,,,,,,,,,,,,,,,,,,,,,,,,,116,bolquer,Catalan,Sounds/cat_bolquer.mp3,2020-06-13_22h03.32.059,TranslationElicitation_spa,3.2.4,Win32,60,5ee3e0ad6b4a780c4b3b39cd,,1,0,80,11,1,79
,,,,,,,,,,,,,,,,,,,,,,,,,,,,,,,,,,,j,13.71300006,J,FALSE,,,,,,,160,orella,Catalan,Sounds/cat_orella.mp3,2020-06-13_22h03.32.059,TranslationElicitation_spa,3.2.4,Win32,60,5ee3e0ad6b4a780c4b3b39cd,,1,0,80,53,1,79
,,,,,,,,,,,,,,,,,,,,,,,,,,,,,,,,,,,i,13.796,JI,FALSE,,,,,,,160,orella,Catalan,Sounds/cat_orella.mp3,2020-06-13_22h03.32.059,TranslationElicitation_spa,3.2.4,Win32,60,5ee3e0ad6b4a780c4b3b39cd,,1,0,80,53,1,79
,,,,,,,,,,,,,,,,,,,,,,,,,,,,,,,,,,,r,14.14599991,JIR,FALSE,,,,,,,160,orella,Catalan,Sounds/cat_orella.mp3,2020-06-13_22h03.32.059,TranslationElicitation_spa,3.2.4,Win32,60,5ee3e0ad6b4a780c4b3b39cd,,1,0,80,53,1,79
,,,,,,,,,,,,,,,,,,,,,,,,,,,,,,,,,,,r,14.25199986,JIRR,FALSE,,,,,,,160,orella,Catalan,Sounds/cat_orella.mp3,2020-06-13_22h03.32.059,TranslationElicitation_spa,3.2.4,Win32,60,5ee3e0ad6b4a780c4b3b39cd,,1,0,80,53,1,79
,,,,,,,,,,,,,,,,,,,,,,,,,,,,,,,,,,,a,14.37800002,JIRRA,FALSE,,,,,,,160,orella,Catalan,Sounds/cat_orella.mp3,2020-06-13_22h03.32.059,TranslationElicitation_spa,3.2.4,Win32,60,5ee3e0ad6b4a780c4b3b39cd,,1,0,80,53,1,79
,,,,,,,,,,,,,,,,,,,,,,,,,,,,,,,,,,,f,14.59099984,JIRRAF,FALSE,,,,,,,160,orella,Catalan,Sounds/cat_orella.mp3,2020-06-13_22h03.32.059,TranslationElicitation_spa,3.2.4,Win32,60,5ee3e0ad6b4a780c4b3b39cd,,1,0,80,53,1,79
,,,,,,,,,,,,,,,,,,,,,,,,,,,,,,,,,,,backspace,15.05999994,JIRR,TRUE,,,,,,,160,orella,Catalan,Sounds/cat_orella.mp3,2020-06-13_22h03.32.059,TranslationElicitation_spa,3.2.4,Win32,60,5ee3e0ad6b4a780c4b3b39cd,,1,0,80,53,1,79
,,,,,,,,,,,,,,,,,,,,,,,,,,,,,,,,,,,backspace,15.21300006,JI,TRUE,,,,,,,160,orella,Catalan,Sounds/cat_orella.mp3,2020-06-13_22h03.32.059,TranslationElicitation_spa,3.2.4,Win32,60,5ee3e0ad6b4a780c4b3b39cd,,1,0,80,53,1,79
,,,,,,,,,,,,,,,,,,,,,,,,,,,,,,,,,,,r,15.81399989,JIR,TRUE,,,,,,,160,orella,Catalan,Sounds/cat_orella.mp3,2020-06-13_22h03.32.059,TranslationElicitation_spa,3.2.4,Win32,60,5ee3e0ad6b4a780c4b3b39cd,,1,0,80,53,1,79
,,,,,,,,,,,,,,,,,,,,,,,,,,,,,,,,,,,a,15.89499998,JIRA,TRUE,,,,,,,160,orella,Catalan,Sounds/cat_orella.mp3,2020-06-13_22h03.32.059,TranslationElicitation_spa,3.2.4,Win32,60,5ee3e0ad6b4a780c4b3b39cd,,1,0,80,53,1,79
,,,,,,,,,,,,,,,,,,,,,,,,,,,,,,,,,,,a,16.12999988,JIRAA,TRUE,,,,,,,160,orella,Catalan,Sounds/cat_orella.mp3,2020-06-13_22h03.32.059,TranslationElicitation_spa,3.2.4,Win32,60,5ee3e0ad6b4a780c4b3b39cd,,1,0,80,53,1,79
,,,,,,,,,,,,,,,,,,,,,,,,,,,,,,,,,,,backspace,16.51300001,JIR,TRUE,,,,,,,160,orella,Catalan,Sounds/cat_orella.mp3,2020-06-13_22h03.32.059,TranslationElicitation_spa,3.2.4,Win32,60,5ee3e0ad6b4a780c4b3b39cd,,1,0,80,53,1,79
,,,,,,,,,,,,,,,,,,,,,,,,,,,,,,,,,,,f,16.61299992,JIRF,TRUE,,,,,,,160,orella,Catalan,Sounds/cat_orella.mp3,2020-06-13_22h03.32.059,TranslationElicitation_spa,3.2.4,Win32,60,5ee3e0ad6b4a780c4b3b39cd,,1,0,80,53,1,79
,,,,,,,,,,,,,,,,,,,,,,,,,,,,,,,,,,,a,16.71300006,JIRFA,TRUE,,,,,,,160,orella,Catalan,Sounds/cat_orella.mp3,2020-06-13_22h03.32.059,TranslationElicitation_spa,3.2.4,Win32,60,5ee3e0ad6b4a780c4b3b39cd,,1,0,80,53,1,79
,,,,,,,,,,,,,,,,,,,,,,,,,,,,,,,,,,,return,16.91299987,,TRUE,,,,,,,160,orella,Catalan,Sounds/cat_orella.mp3,2020-06-13_22h03.32.059,TranslationElicitation_spa,3.2.4,Win32,60,5ee3e0ad6b4a780c4b3b39cd,16.91299987,1,0,80,53,1,79
,,,,,,,,,,,,,,,,,,,,,,,,,,,,,,,,,,,,,,,,,,,,,160,orella,Catalan,Sounds/cat_orella.mp3,2020-06-13_22h03.32.059,TranslationElicitation_spa,3.2.4,Win32,60,5ee3e0ad6b4a780c4b3b39cd,,1,0,80,53,1,79
,,,,,,,,,,,,,,,,,,,,,,,,,,,,,,,,,,,e,1.337000132,E,FALSE,,,,,,,132,estrella,Catalan,Sounds/cat_estrella.mp3,2020-06-13_22h03.32.059,TranslationElicitation_spa,3.2.4,Win32,60,5ee3e0ad6b4a780c4b3b39cd,,1,0,80,27,1,79
,,,,,,,,,,,,,,,,,,,,,,,,,,,,,,,,,,,s,1.467000008,ES,FALSE,,,,,,,132,estrella,Catalan,Sounds/cat_estrella.mp3,2020-06-13_22h03.32.059,TranslationElicitation_spa,3.2.4,Win32,60,5ee3e0ad6b4a780c4b3b39cd,,1,0,80,27,1,79
,,,,,,,,,,,,,,,,,,,,,,,,,,,,,,,,,,,t,1.677000046,EST,FALSE,,,,,,,132,estrella,Catalan,Sounds/cat_estrella.mp3,2020-06-13_22h03.32.059,TranslationElicitation_spa,3.2.4,Win32,60,5ee3e0ad6b4a780c4b3b39cd,,1,0,80,27,1,79
,,,,,,,,,,,,,,,,,,,,,,,,,,,,,,,,,,,r,1.773999929,ESTR,FALSE,,,,,,,132,estrella,Catalan,Sounds/cat_estrella.mp3,2020-06-13_22h03.32.059,TranslationElicitation_spa,3.2.4,Win32,60,5ee3e0ad6b4a780c4b3b39cd,,1,0,80,27,1,79
,,,,,,,,,,,,,,,,,,,,,,,,,,,,,,,,,,,l,2.944000006,ESTRL,FALSE,,,,,,,132,estrella,Catalan,Sounds/cat_estrella.mp3,2020-06-13_22h03.32.059,TranslationElicitation_spa,3.2.4,Win32,60,5ee3e0ad6b4a780c4b3b39cd,,1,0,80,27,1,79
,,,,,,,,,,,,,,,,,,,,,,,,,,,,,,,,,,,backspace,3.611000061,EST,TRUE,,,,,,,132,estrella,Catalan,Sounds/cat_estrella.mp3,2020-06-13_22h03.32.059,TranslationElicitation_spa,3.2.4,Win32,60,5ee3e0ad6b4a780c4b3b39cd,,1,0,80,27,1,79
,,,,,,,,,,,,,,,,,,,,,,,,,,,,,,,,,,,r,4.52699995,ESTR,TRUE,,,,,,,132,estrella,Catalan,Sounds/cat_estrella.mp3,2020-06-13_22h03.32.059,TranslationElicitation_spa,3.2.4,Win32,60,5ee3e0ad6b4a780c4b3b39cd,,1,0,80,27,1,79
,,,,,,,,,,,,,,,,,,,,,,,,,,,,,,,,,,,e,4.644000053,ESTRE,TRUE,,,,,,,132,estrella,Catalan,Sounds/cat_estrella.mp3,2020-06-13_22h03.32.059,TranslationElicitation_spa,3.2.4,Win32,60,5ee3e0ad6b4a780c4b3b39cd,,1,0,80,27,1,79
,,,,,,,,,,,,,,,,,,,,,,,,,,,,,,,,,,,l,5.078000069,ESTREL,TRUE,,,,,,,132,estrella,Catalan,Sounds/cat_estrella.mp3,2020-06-13_22h03.32.059,TranslationElicitation_spa,3.2.4,Win32,60,5ee3e0ad6b4a780c4b3b39cd,,1,0,80,27,1,79
,,,,,,,,,,,,,,,,,,,,,,,,,,,,,,,,,,,l,5.179000139,ESTRELL,TRUE,,,,,,,132,estrella,Catalan,Sounds/cat_estrella.mp3,2020-06-13_22h03.32.059,TranslationElicitation_spa,3.2.4,Win32,60,5ee3e0ad6b4a780c4b3b39cd,,1,0,80,27,1,79
,,,,,,,,,,,,,,,,,,,,,,,,,,,,,,,,,,,a,5.243999958,ESTRELLA,TRUE,,,,,,,132,estrella,Catalan,Sounds/cat_estrella.mp3,2020-06-13_22h03.32.059,TranslationElicitation_spa,3.2.4,Win32,60,5ee3e0ad6b4a780c4b3b39cd,,1,0,80,27,1,79
,,,,,,,,,,,,,,,,,,,,,,,,,,,,,,,,,,,return,5.809999943,,TRUE,,,,,,,132,estrella,Catalan,Sounds/cat_estrella.mp3,2020-06-13_22h03.32.059,TranslationElicitation_spa,3.2.4,Win32,60,5ee3e0ad6b4a780c4b3b39cd,5.809999943,1,0,80,27,1,79
,,,,,,,,,,,,,,,,,,,,,,,,,,,,,,,,,,,,,,,,,,,,,132,estrella,Catalan,Sounds/cat_estrella.mp3,2020-06-13_22h03.32.059,TranslationElicitation_spa,3.2.4,Win32,60,5ee3e0ad6b4a780c4b3b39cd,,1,0,80,27,1,79
,,,,,,,,,,,,,,,,,,,,,,,,,,,,,,,,,,,l,2.273000002,L,FALSE,,,,,,,137,fulla,Catalan,Sounds/cat_fulla.mp3,2020-06-13_22h03.32.059,TranslationElicitation_spa,3.2.4,Win32,60,5ee3e0ad6b4a780c4b3b39cd,,1,0,80,32,1,79
,,,,,,,,,,,,,,,,,,,,,,,,,,,,,,,,,,,l,2.416000128,LL,FALSE,,,,,,,137,fulla,Catalan,Sounds/cat_fulla.mp3,2020-06-13_22h03.32.059,TranslationElicitation_spa,3.2.4,Win32,60,5ee3e0ad6b4a780c4b3b39cd,,1,0,80,32,1,79
,,,,,,,,,,,,,,,,,,,,,,,,,,,,,,,,,,,u,2.664999962,LLU,FALSE,,,,,,,137,fulla,Catalan,Sounds/cat_fulla.mp3,2020-06-13_22h03.32.059,TranslationElicitation_spa,3.2.4,Win32,60,5ee3e0ad6b4a780c4b3b39cd,,1,0,80,32,1,79
,,,,,,,,,,,,,,,,,,,,,,,,,,,,,,,,,,,v,2.881000042,LLUV,FALSE,,,,,,,137,fulla,Catalan,Sounds/cat_fulla.mp3,2020-06-13_22h03.32.059,TranslationElicitation_spa,3.2.4,Win32,60,5ee3e0ad6b4a780c4b3b39cd,,1,0,80,32,1,79
,,,,,,,,,,,,,,,,,,,,,,,,,,,,,,,,,,,i,2.997999907,LLUVI,FALSE,,,,,,,137,fulla,Catalan,Sounds/cat_fulla.mp3,2020-06-13_22h03.32.059,TranslationElicitation_spa,3.2.4,Win32,60,5ee3e0ad6b4a780c4b3b39cd,,1,0,80,32,1,79
,,,,,,,,,,,,,,,,,,,,,,,,,,,,,,,,,,,a,3.247999907,LLUVIA,FALSE,,,,,,,137,fulla,Catalan,Sounds/cat_fulla.mp3,2020-06-13_22h03.32.059,TranslationElicitation_spa,3.2.4,Win32,60,5ee3e0ad6b4a780c4b3b39cd,,1,0,80,32,1,79
,,,,,,,,,,,,,,,,,,,,,,,,,,,,,,,,,,,return,3.809999943,,FALSE,,,,,,,137,fulla,Catalan,Sounds/cat_fulla.mp3,2020-06-13_22h03.32.059,TranslationElicitation_spa,3.2.4,Win32,60,5ee3e0ad6b4a780c4b3b39cd,3.809999943,1,0,80,32,1,79
,,,,,,,,,,,,,,,,,,,,,,,,,,,,,,,,,,,,,,,,,,,,,137,fulla,Catalan,Sounds/cat_fulla.mp3,2020-06-13_22h03.32.059,TranslationElicitation_spa,3.2.4,Win32,60,5ee3e0ad6b4a780c4b3b39cd,,1,0,80,32,1,79
,,,,,,,,,,,,,,,,,,,,,,,,,,,,,,,,,,,p,3.625999928,P,FALSE,,,,,,,171,pollastre,Catalan,Sounds/cat_pollastre.mp3,2020-06-13_22h03.32.059,TranslationElicitation_spa,3.2.4,Win32,60,5ee3e0ad6b4a780c4b3b39cd,,1,0,80,63,1,79
,,,,,,,,,,,,,,,,,,,,,,,,,,,,,,,,,,,o,17.0250001,PO,FALSE,,,,,,,171,pollastre,Catalan,Sounds/cat_pollastre.mp3,2020-06-13_22h03.32.059,TranslationElicitation_spa,3.2.4,Win32,60,5ee3e0ad6b4a780c4b3b39cd,,1,0,80,63,1,79
,,,,,,,,,,,,,,,,,,,,,,,,,,,,,,,,,,,l,17.24199986,POL,FALSE,,,,,,,171,pollastre,Catalan,Sounds/cat_pollastre.mp3,2020-06-13_22h03.32.059,TranslationElicitation_spa,3.2.4,Win32,60,5ee3e0ad6b4a780c4b3b39cd,,1,0,80,63,1,79
,,,,,,,,,,,,,,,,,,,,,,,,,,,,,,,,,,,l,17.375,POLL,FALSE,,,,,,,171,pollastre,Catalan,Sounds/cat_pollastre.mp3,2020-06-13_22h03.32.059,TranslationElicitation_spa,3.2.4,Win32,60,5ee3e0ad6b4a780c4b3b39cd,,1,0,80,63,1,79
,,,,,,,,,,,,,,,,,,,,,,,,,,,,,,,,,,,o,17.5079999,POLLO,FALSE,,,,,,,171,pollastre,Catalan,Sounds/cat_pollastre.mp3,2020-06-13_22h03.32.059,TranslationElicitation_spa,3.2.4,Win32,60,5ee3e0ad6b4a780c4b3b39cd,,1,0,80,63,1,79
,,,,,,,,,,,,,,,,,,,,,,,,,,,,,,,,,,,s,17.60899997,POLLOS,FALSE,,,,,,,171,pollastre,Catalan,Sounds/cat_pollastre.mp3,2020-06-13_22h03.32.059,TranslationElicitation_spa,3.2.4,Win32,60,5ee3e0ad6b4a780c4b3b39cd,,1,0,80,63,1,79
,,,,,,,,,,,,,,,,,,,,,,,,,,,,,,,,,,,return,18.95899987,,FALSE,,,,,,,171,pollastre,Catalan,Sounds/cat_pollastre.mp3,2020-06-13_22h03.32.059,TranslationElicitation_spa,3.2.4,Win32,60,5ee3e0ad6b4a780c4b3b39cd,18.95899987,1,0,80,63,1,79
,,,,,,,,,,,,,,,,,,,,,,,,,,,,,,,,,,,,,,,,,,,,,171,pollastre,Catalan,Sounds/cat_pollastre.mp3,2020-06-13_22h03.32.059,TranslationElicitation_spa,3.2.4,Win32,60,5ee3e0ad6b4a780c4b3b39cd,,1,0,80,63,1,79
,,,,,,,,,,,,,,,,,,,,,,,,,,,,,,,,,,,p,1.690000057,P,FALSE,,,,,,,162,pa,Catalan,Sounds/cat_pa.mp3,2020-06-13_22h03.32.059,TranslationElicitation_spa,3.2.4,Win32,60,5ee3e0ad6b4a780c4b3b39cd,,1,0,80,55,1,79
,,,,,,,,,,,,,,,,,,,,,,,,,,,,,,,,,,,a,1.751000166,PA,FALSE,,,,,,,162,pa,Catalan,Sounds/cat_pa.mp3,2020-06-13_22h03.32.059,TranslationElicitation_spa,3.2.4,Win32,60,5ee3e0ad6b4a780c4b3b39cd,,1,0,80,55,1,79
,,,,,,,,,,,,,,,,,,,,,,,,,,,,,,,,,,,v,1.945000172,PAV,FALSE,,,,,,,162,pa,Catalan,Sounds/cat_pa.mp3,2020-06-13_22h03.32.059,TranslationElicitation_spa,3.2.4,Win32,60,5ee3e0ad6b4a780c4b3b39cd,,1,0,80,55,1,79
,,,,,,,,,,,,,,,,,,,,,,,,,,,,,,,,,,,o,2.078999996,PAVO,FALSE,,,,,,,162,pa,Catalan,Sounds/cat_pa.mp3,2020-06-13_22h03.32.059,TranslationElicitation_spa,3.2.4,Win32,60,5ee3e0ad6b4a780c4b3b39cd,,1,0,80,55,1,79
,,,,,,,,,,,,,,,,,,,,,,,,,,,,,,,,,,,return,2.617000103,,FALSE,,,,,,,162,pa,Catalan,Sounds/cat_pa.mp3,2020-06-13_22h03.32.059,TranslationElicitation_spa,3.2.4,Win32,60,5ee3e0ad6b4a780c4b3b39cd,2.617000103,1,0,80,55,1,79
,,,,,,,,,,,,,,,,,,,,,,,,,,,,,,,,,,,,,,,,,,,,,162,pa,Catalan,Sounds/cat_pa.mp3,2020-06-13_22h03.32.059,TranslationElicitation_spa,3.2.4,Win32,60,5ee3e0ad6b4a780c4b3b39cd,,1,0,80,55,1,79
,,,,,,,,,,,,,,,,,,,,,,,,,,,,,,,,,,,s,1.684000015,S,FALSE,,,,,,,131,esponja,Catalan,Sounds/cat_esponja.mp3,2020-06-13_22h03.32.059,TranslationElicitation_spa,3.2.4,Win32,60,5ee3e0ad6b4a780c4b3b39cd,,1,0,80,26,1,79
,,,,,,,,,,,,,,,,,,,,,,,,,,,,,,,,,,,p,1.816999912,SP,FALSE,,,,,,,131,esponja,Catalan,Sounds/cat_esponja.mp3,2020-06-13_22h03.32.059,TranslationElicitation_spa,3.2.4,Win32,60,5ee3e0ad6b4a780c4b3b39cd,,1,0,80,26,1,79
,,,,,,,,,,,,,,,,,,,,,,,,,,,,,,,,,,,backspace,2.53399992,,TRUE,,,,,,,131,esponja,Catalan,Sounds/cat_esponja.mp3,2020-06-13_22h03.32.059,TranslationElicitation_spa,3.2.4,Win32,60,5ee3e0ad6b4a780c4b3b39cd,,1,0,80,26,1,79
,,,,,,,,,,,,,,,,,,,,,,,,,,,,,,,,,,,backspace,2.681999922,,TRUE,,,,,,,131,esponja,Catalan,Sounds/cat_esponja.mp3,2020-06-13_22h03.32.059,TranslationElicitation_spa,3.2.4,Win32,60,5ee3e0ad6b4a780c4b3b39cd,,1,0,80,26,1,79
,,,,,,,,,,,,,,,,,,,,,,,,,,,,,,,,,,,e,2.98300004,E,TRUE,,,,,,,131,esponja,Catalan,Sounds/cat_esponja.mp3,2020-06-13_22h03.32.059,TranslationElicitation_spa,3.2.4,Win32,60,5ee3e0ad6b4a780c4b3b39cd,,1,0,80,26,1,79
,,,,,,,,,,,,,,,,,,,,,,,,,,,,,,,,,,,s,3.165999889,ES,TRUE,,,,,,,131,esponja,Catalan,Sounds/cat_esponja.mp3,2020-06-13_22h03.32.059,TranslationElicitation_spa,3.2.4,Win32,60,5ee3e0ad6b4a780c4b3b39cd,,1,0,80,26,1,79
,,,,,,,,,,,,,,,,,,,,,,,,,,,,,,,,,,,p,3.382999897,ESP,TRUE,,,,,,,131,esponja,Catalan,Sounds/cat_esponja.mp3,2020-06-13_22h03.32.059,TranslationElicitation_spa,3.2.4,Win32,60,5ee3e0ad6b4a780c4b3b39cd,,1,0,80,26,1,79
,,,,,,,,,,,,,,,,,,,,,,,,,,,,,,,,,,,o,3.566999912,ESPO,TRUE,,,,,,,131,esponja,Catalan,Sounds/cat_esponja.mp3,2020-06-13_22h03.32.059,TranslationElicitation_spa,3.2.4,Win32,60,5ee3e0ad6b4a780c4b3b39cd,,1,0,80,26,1,79
,,,,,,,,,,,,,,,,,,,,,,,,,,,,,,,,,,,n,3.75,ESPON,TRUE,,,,,,,131,esponja,Catalan,Sounds/cat_esponja.mp3,2020-06-13_22h03.32.059,TranslationElicitation_spa,3.2.4,Win32,60,5ee3e0ad6b4a780c4b3b39cd,,1,0,80,26,1,79
,,,,,,,,,,,,,,,,,,,,,,,,,,,,,,,,,,,a,4.099999905,ESPONA,TRUE,,,,,,,131,esponja,Catalan,Sounds/cat_esponja.mp3,2020-06-13_22h03.32.059,TranslationElicitation_spa,3.2.4,Win32,60,5ee3e0ad6b4a780c4b3b39cd,,1,0,80,26,1,79
,,,,,,,,,,,,,,,,,,,,,,,,,,,,,,,,,,,backspace,4.832999945,ESPO,TRUE,,,,,,,131,esponja,Catalan,Sounds/cat_esponja.mp3,2020-06-13_22h03.32.059,TranslationElicitation_spa,3.2.4,Win32,60,5ee3e0ad6b4a780c4b3b39cd,,1,0,80,26,1,79
,,,,,,,,,,,,,,,,,,,,,,,,,,,,,,,,,,,n,5.48300004,ESPON,TRUE,,,,,,,131,esponja,Catalan,Sounds/cat_esponja.mp3,2020-06-13_22h03.32.059,TranslationElicitation_spa,3.2.4,Win32,60,5ee3e0ad6b4a780c4b3b39cd,,1,0,80,26,1,79
,,,,,,,,,,,,,,,,,,,,,,,,,,,,,,,,,,,j,5.611999989,ESPONJ,TRUE,,,,,,,131,esponja,Catalan,Sounds/cat_esponja.mp3,2020-06-13_22h03.32.059,TranslationElicitation_spa,3.2.4,Win32,60,5ee3e0ad6b4a780c4b3b39cd,,1,0,80,26,1,79
,,,,,,,,,,,,,,,,,,,,,,,,,,,,,,,,,,,a,5.776000023,ESPONJA,TRUE,,,,,,,131,esponja,Catalan,Sounds/cat_esponja.mp3,2020-06-13_22h03.32.059,TranslationElicitation_spa,3.2.4,Win32,60,5ee3e0ad6b4a780c4b3b39cd,,1,0,80,26,1,79
,,,,,,,,,,,,,,,,,,,,,,,,,,,,,,,,,,,return,6.164999962,,TRUE,,,,,,,131,esponja,Catalan,Sounds/cat_esponja.mp3,2020-06-13_22h03.32.059,TranslationElicitation_spa,3.2.4,Win32,60,5ee3e0ad6b4a780c4b3b39cd,6.164999962,1,0,80,26,1,79
,,,,,,,,,,,,,,,,,,,,,,,,,,,,,,,,,,,,,,,,,,,,,131,esponja,Catalan,Sounds/cat_esponja.mp3,2020-06-13_22h03.32.059,TranslationElicitation_spa,3.2.4,Win32,60,5ee3e0ad6b4a780c4b3b39cd,,1,0,80,26,1,79
,,,,,,,,,,,,,,,,,,,,,,,,,,,,,,,,,,,p,1.930999994,P,FALSE,,,,,,,153,mico,Catalan,Sounds/cat_mico.mp3,2020-06-13_22h03.32.059,TranslationElicitation_spa,3.2.4,Win32,60,5ee3e0ad6b4a780c4b3b39cd,,1,0,80,47,1,79
,,,,,,,,,,,,,,,,,,,,,,,,,,,,,,,,,,,e,2.196000099,PE,FALSE,,,,,,,153,mico,Catalan,Sounds/cat_mico.mp3,2020-06-13_22h03.32.059,TranslationElicitation_spa,3.2.4,Win32,60,5ee3e0ad6b4a780c4b3b39cd,,1,0,80,47,1,79
,,,,,,,,,,,,,,,,,,,,,,,,,,,,,,,,,,,q,2.404999971,PEQ,FALSE,,,,,,,153,mico,Catalan,Sounds/cat_mico.mp3,2020-06-13_22h03.32.059,TranslationElicitation_spa,3.2.4,Win32,60,5ee3e0ad6b4a780c4b3b39cd,,1,0,80,47,1,79
,,,,,,,,,,,,,,,,,,,,,,,,,,,,,,,,,,,u,2.531000137,PEQU,FALSE,,,,,,,153,mico,Catalan,Sounds/cat_mico.mp3,2020-06-13_22h03.32.059,TranslationElicitation_spa,3.2.4,Win32,60,5ee3e0ad6b4a780c4b3b39cd,,1,0,80,47,1,79
,,,,,,,,,,,,,,,,,,,,,,,,,,,,,,,,,,,semicolon,2.898000002,PEQUÑ,FALSE,,,,,,,153,mico,Catalan,Sounds/cat_mico.mp3,2020-06-13_22h03.32.059,TranslationElicitation_spa,3.2.4,Win32,60,5ee3e0ad6b4a780c4b3b39cd,,1,0,80,47,1,79
,,,,,,,,,,,,,,,,,,,,,,,,,,,,,,,,,,,o,3.105000019,PEQUÑO,FALSE,,,,,,,153,mico,Catalan,Sounds/cat_mico.mp3,2020-06-13_22h03.32.059,TranslationElicitation_spa,3.2.4,Win32,60,5ee3e0ad6b4a780c4b3b39cd,,1,0,80,47,1,79
,,,,,,,,,,,,,,,,,,,,,,,,,,,,,,,,,,,backspace,3.648000002,PEQU,TRUE,,,,,,,153,mico,Catalan,Sounds/cat_mico.mp3,2020-06-13_22h03.32.059,TranslationElicitation_spa,3.2.4,Win32,60,5ee3e0ad6b4a780c4b3b39cd,,1,0,80,47,1,79
,,,,,,,,,,,,,,,,,,,,,,,,,,,,,,,,,,,backspace,3.796000004,PE,TRUE,,,,,,,153,mico,Catalan,Sounds/cat_mico.mp3,2020-06-13_22h03.32.059,TranslationElicitation_spa,3.2.4,Win32,60,5ee3e0ad6b4a780c4b3b39cd,,1,0,80,47,1,79
,,,,,,,,,,,,,,,,,,,,,,,,,,,,,,,,,,,e,4.019000053,PEE,TRUE,,,,,,,153,mico,Catalan,Sounds/cat_mico.mp3,2020-06-13_22h03.32.059,TranslationElicitation_spa,3.2.4,Win32,60,5ee3e0ad6b4a780c4b3b39cd,,1,0,80,47,1,79
,,,,,,,,,,,,,,,,,,,,,,,,,,,,,,,,,,,backspace,4.463999987,P,TRUE,,,,,,,153,mico,Catalan,Sounds/cat_mico.mp3,2020-06-13_22h03.32.059,TranslationElicitation_spa,3.2.4,Win32,60,5ee3e0ad6b4a780c4b3b39cd,,1,0,80,47,1,79
,,,,,,,,,,,,,,,,,,,,,,,,,,,,,,,,,,,q,4.595999956,PQ,TRUE,,,,,,,153,mico,Catalan,Sounds/cat_mico.mp3,2020-06-13_22h03.32.059,TranslationElicitation_spa,3.2.4,Win32,60,5ee3e0ad6b4a780c4b3b39cd,,1,0,80,47,1,79
,,,,,,,,,,,,,,,,,,,,,,,,,,,,,,,,,,,backspace,5.281000137,,TRUE,,,,,,,153,mico,Catalan,Sounds/cat_mico.mp3,2020-06-13_22h03.32.059,TranslationElicitation_spa,3.2.4,Win32,60,5ee3e0ad6b4a780c4b3b39cd,,1,0,80,47,1,79
,,,,,,,,,,,,,,,,,,,,,,,,,,,,,,,,,,,backspace,5.597000122,,TRUE,,,,,,,153,mico,Catalan,Sounds/cat_mico.mp3,2020-06-13_22h03.32.059,TranslationElicitation_spa,3.2.4,Win32,60,5ee3e0ad6b4a780c4b3b39cd,,1,0,80,47,1,79
,,,,,,,,,,,,,,,,,,,,,,,,,,,,,,,,,,,p,5.947000027,P,TRUE,,,,,,,153,mico,Catalan,Sounds/cat_mico.mp3,2020-06-13_22h03.32.059,TranslationElicitation_spa,3.2.4,Win32,60,5ee3e0ad6b4a780c4b3b39cd,,1,0,80,47,1,79
,,,,,,,,,,,,,,,,,,,,,,,,,,,,,,,,,,,e,6.031000137,PE,TRUE,,,,,,,153,mico,Catalan,Sounds/cat_mico.mp3,2020-06-13_22h03.32.059,TranslationElicitation_spa,3.2.4,Win32,60,5ee3e0ad6b4a780c4b3b39cd,,1,0,80,47,1,79
,,,,,,,,,,,,,,,,,,,,,,,,,,,,,,,,,,,q,6.213999987,PEQ,TRUE,,,,,,,153,mico,Catalan,Sounds/cat_mico.mp3,2020-06-13_22h03.32.059,TranslationElicitation_spa,3.2.4,Win32,60,5ee3e0ad6b4a780c4b3b39cd,,1,0,80,47,1,79
,,,,,,,,,,,,,,,,,,,,,,,,,,,,,,,,,,,u,6.397000074,PEQU,TRUE,,,,,,,153,mico,Catalan,Sounds/cat_mico.mp3,2020-06-13_22h03.32.059,TranslationElicitation_spa,3.2.4,Win32,60,5ee3e0ad6b4a780c4b3b39cd,,1,0,80,47,1,79
,,,,,,,,,,,,,,,,,,,,,,,,,,,,,,,,,,,e,6.819000006,PEQUE,TRUE,,,,,,,153,mico,Catalan,Sounds/cat_mico.mp3,2020-06-13_22h03.32.059,TranslationElicitation_spa,3.2.4,Win32,60,5ee3e0ad6b4a780c4b3b39cd,,1,0,80,47,1,79
,,,,,,,,,,,,,,,,,,,,,,,,,,,,,,,,,,,semicolon,7.046999931,PEQUEÑ,TRUE,,,,,,,153,mico,Catalan,Sounds/cat_mico.mp3,2020-06-13_22h03.32.059,TranslationElicitation_spa,3.2.4,Win32,60,5ee3e0ad6b4a780c4b3b39cd,,1,0,80,47,1,79
,,,,,,,,,,,,,,,,,,,,,,,,,,,,,,,,,,,o,7.281000137,PEQUEÑO,TRUE,,,,,,,153,mico,Catalan,Sounds/cat_mico.mp3,2020-06-13_22h03.32.059,TranslationElicitation_spa,3.2.4,Win32,60,5ee3e0ad6b4a780c4b3b39cd,,1,0,80,47,1,79
,,,,,,,,,,,,,,,,,,,,,,,,,,,,,,,,,,,return,7.680000067,,TRUE,,,,,,,153,mico,Catalan,Sounds/cat_mico.mp3,2020-06-13_22h03.32.059,TranslationElicitation_spa,3.2.4,Win32,60,5ee3e0ad6b4a780c4b3b39cd,7.680000067,1,0,80,47,1,79
,,,,,,,,,,,,,,,,,,,,,,,,,,,,,,,,,,,,,,,,,,,,,153,mico,Catalan,Sounds/cat_mico.mp3,2020-06-13_22h03.32.059,TranslationElicitation_spa,3.2.4,Win32,60,5ee3e0ad6b4a780c4b3b39cd,,1,0,80,47,1,79
,,,,,,,,,,,,,,,,,,,,,,,,,,,,,,,,,,,b,4.006000042,B,FALSE,,,,,,,166,peu,Catalan,Sounds/cat_peu.mp3,2020-06-13_22h03.32.059,TranslationElicitation_spa,3.2.4,Win32,60,5ee3e0ad6b4a780c4b3b39cd,,1,0,80,59,1,79
,,,,,,,,,,,,,,,,,,,,,,,,,,,,,,,,,,,o,4.657000065,BO,FALSE,,,,,,,166,peu,Catalan,Sounds/cat_peu.mp3,2020-06-13_22h03.32.059,TranslationElicitation_spa,3.2.4,Win32,60,5ee3e0ad6b4a780c4b3b39cd,,1,0,80,59,1,79
,,,,,,,,,,,,,,,,,,,,,,,,,,,,,,,,,,,n,4.815999985,BON,FALSE,,,,,,,166,peu,Catalan,Sounds/cat_peu.mp3,2020-06-13_22h03.32.059,TranslationElicitation_spa,3.2.4,Win32,60,5ee3e0ad6b4a780c4b3b39cd,,1,0,80,59,1,79
,,,,,,,,,,,,,,,,,,,,,,,,,,,,,,,,,,,i,5.040999889,BONI,FALSE,,,,,,,166,peu,Catalan,Sounds/cat_peu.mp3,2020-06-13_22h03.32.059,TranslationElicitation_spa,3.2.4,Win32,60,5ee3e0ad6b4a780c4b3b39cd,,1,0,80,59,1,79
,,,,,,,,,,,,,,,,,,,,,,,,,,,,,,,,,,,t,5.124000072,BONIT,FALSE,,,,,,,166,peu,Catalan,Sounds/cat_peu.mp3,2020-06-13_22h03.32.059,TranslationElicitation_spa,3.2.4,Win32,60,5ee3e0ad6b4a780c4b3b39cd,,1,0,80,59,1,79
,,,,,,,,,,,,,,,,,,,,,,,,,,,,,,,,,,,o,5.24000001,BONITO,FALSE,,,,,,,166,peu,Catalan,Sounds/cat_peu.mp3,2020-06-13_22h03.32.059,TranslationElicitation_spa,3.2.4,Win32,60,5ee3e0ad6b4a780c4b3b39cd,,1,0,80,59,1,79
,,,,,,,,,,,,,,,,,,,,,,,,,,,,,,,,,,,return,5.690000057,,FALSE,,,,,,,166,peu,Catalan,Sounds/cat_peu.mp3,2020-06-13_22h03.32.059,TranslationElicitation_spa,3.2.4,Win32,60,5ee3e0ad6b4a780c4b3b39cd,5.688999891,1,0,80,59,1,79
,,,,,,,,,,,,,,,,,,,,,,,,,,,,,,,,,,,,,,,,,,,,,166,peu,Catalan,Sounds/cat_peu.mp3,2020-06-13_22h03.32.059,TranslationElicitation_spa,3.2.4,Win32,60,5ee3e0ad6b4a780c4b3b39cd,,1,0,80,59,1,79
,,,,,,,,,,,,,,,,,,,,,,,,,,,,,,,,,,,a,6.553999901,A,FALSE,,,,,,,107,amanida,Catalan,Sounds/cat_amanida.mp3,2020-06-13_22h03.32.059,TranslationElicitation_spa,3.2.4,Win32,60,5ee3e0ad6b4a780c4b3b39cd,,1,0,80,3,1,79
,,,,,,,,,,,,,,,,,,,,,,,,,,,,,,,,,,,m,6.687999964,AM,FALSE,,,,,,,107,amanida,Catalan,Sounds/cat_amanida.mp3,2020-06-13_22h03.32.059,TranslationElicitation_spa,3.2.4,Win32,60,5ee3e0ad6b4a780c4b3b39cd,,1,0,80,3,1,79
,,,,,,,,,,,,,,,,,,,,,,,,,,,,,,,,,,,a,6.779999971,AMA,FALSE,,,,,,,107,amanida,Catalan,Sounds/cat_amanida.mp3,2020-06-13_22h03.32.059,TranslationElicitation_spa,3.2.4,Win32,60,5ee3e0ad6b4a780c4b3b39cd,,1,0,80,3,1,79
,,,,,,,,,,,,,,,,,,,,,,,,,,,,,,,,,,,n,6.911000013,AMAN,FALSE,,,,,,,107,amanida,Catalan,Sounds/cat_amanida.mp3,2020-06-13_22h03.32.059,TranslationElicitation_spa,3.2.4,Win32,60,5ee3e0ad6b4a780c4b3b39cd,,1,0,80,3,1,79
,,,,,,,,,,,,,,,,,,,,,,,,,,,,,,,,,,,e,7.036000013,AMANE,FALSE,,,,,,,107,amanida,Catalan,Sounds/cat_amanida.mp3,2020-06-13_22h03.32.059,TranslationElicitation_spa,3.2.4,Win32,60,5ee3e0ad6b4a780c4b3b39cd,,1,0,80,3,1,79
,,,,,,,,,,,,,,,,,,,,,,,,,,,,,,,,,,,c,7.289000034,AMANEC,FALSE,,,,,,,107,amanida,Catalan,Sounds/cat_amanida.mp3,2020-06-13_22h03.32.059,TranslationElicitation_spa,3.2.4,Win32,60,5ee3e0ad6b4a780c4b3b39cd,,1,0,80,3,1,79
,,,,,,,,,,,,,,,,,,,,,,,,,,,,,,,,,,,e,7.489000082,AMANECE,FALSE,,,,,,,107,amanida,Catalan,Sounds/cat_amanida.mp3,2020-06-13_22h03.32.059,TranslationElicitation_spa,3.2.4,Win32,60,5ee3e0ad6b4a780c4b3b39cd,,1,0,80,3,1,79
,,,,,,,,,,,,,,,,,,,,,,,,,,,,,,,,,,,r,7.523000002,AMANECER,FALSE,,,,,,,107,amanida,Catalan,Sounds/cat_amanida.mp3,2020-06-13_22h03.32.059,TranslationElicitation_spa,3.2.4,Win32,60,5ee3e0ad6b4a780c4b3b39cd,,1,0,80,3,1,79
,,,,,,,,,,,,,,,,,,,,,,,,,,,,,,,,,,,return,8.803999901,,FALSE,,,,,,,107,amanida,Catalan,Sounds/cat_amanida.mp3,2020-06-13_22h03.32.059,TranslationElicitation_spa,3.2.4,Win32,60,5ee3e0ad6b4a780c4b3b39cd,8.803999901,1,0,80,3,1,79
,,,,,,,,,,,,,,,,,,,,,,,,,,,,,,,,,,,,,,,,,,,,,107,amanida,Catalan,Sounds/cat_amanida.mp3,2020-06-13_22h03.32.059,TranslationElicitation_spa,3.2.4,Win32,60,5ee3e0ad6b4a780c4b3b39cd,,1,0,80,3,1,79
,,,,,,,,,,,,,,,,,,,,,,,,,,,,,,,,,,,p,1.497999907,P,FALSE,,,,,,,168,planta,Catalan,Sounds/cat_planta.mp3,2020-06-13_22h03.32.059,TranslationElicitation_spa,3.2.4,Win32,60,5ee3e0ad6b4a780c4b3b39cd,,1,0,80,60,1,79
,,,,,,,,,,,,,,,,,,,,,,,,,,,,,,,,,,,l,1.559999943,PL,FALSE,,,,,,,168,planta,Catalan,Sounds/cat_planta.mp3,2020-06-13_22h03.32.059,TranslationElicitation_spa,3.2.4,Win32,60,5ee3e0ad6b4a780c4b3b39cd,,1,0,80,60,1,79
,,,,,,,,,,,,,,,,,,,,,,,,,,,,,,,,,,,a,1.680000067,PLA,FALSE,,,,,,,168,planta,Catalan,Sounds/cat_planta.mp3,2020-06-13_22h03.32.059,TranslationElicitation_spa,3.2.4,Win32,60,5ee3e0ad6b4a780c4b3b39cd,,1,0,80,60,1,79
,,,,,,,,,,,,,,,,,,,,,,,,,,,,,,,,,,,n,1.859999895,PLAN,FALSE,,,,,,,168,planta,Catalan,Sounds/cat_planta.mp3,2020-06-13_22h03.32.059,TranslationElicitation_spa,3.2.4,Win32,60,5ee3e0ad6b4a780c4b3b39cd,,1,0,80,60,1,79
,,,,,,,,,,,,,,,,,,,,,,,,,,,,,,,,,,,t,1.958999872,PLANT,FALSE,,,,,,,168,planta,Catalan,Sounds/cat_planta.mp3,2020-06-13_22h03.32.059,TranslationElicitation_spa,3.2.4,Win32,60,5ee3e0ad6b4a780c4b3b39cd,,1,0,80,60,1,79
,,,,,,,,,,,,,,,,,,,,,,,,,,,,,,,,,,,a,2.155999899,PLANTA,FALSE,,,,,,,168,planta,Catalan,Sounds/cat_planta.mp3,2020-06-13_22h03.32.059,TranslationElicitation_spa,3.2.4,Win32,60,5ee3e0ad6b4a780c4b3b39cd,,1,0,80,60,1,79
,,,,,,,,,,,,,,,,,,,,,,,,,,,,,,,,,,,return,2.430000067,,FALSE,,,,,,,168,planta,Catalan,Sounds/cat_planta.mp3,2020-06-13_22h03.32.059,TranslationElicitation_spa,3.2.4,Win32,60,5ee3e0ad6b4a780c4b3b39cd,2.427999973,1,0,80,60,1,79
,,,,,,,,,,,,,,,,,,,,,,,,,,,,,,,,,,,,,,,,,,,,,168,planta,Catalan,Sounds/cat_planta.mp3,2020-06-13_22h03.32.059,TranslationElicitation_spa,3.2.4,Win32,60,5ee3e0ad6b4a780c4b3b39cd,,1,0,80,60,1,79
,,,,,,,,,,,,,,,,,,,,,,,,,,,,,,,,,,,o,1.114000082,O,FALSE,,,,,,,127,cotxe,Catalan,Sounds/cat_cotxe.mp3,2020-06-13_22h03.32.059,TranslationElicitation_spa,3.2.4,Win32,60,5ee3e0ad6b4a780c4b3b39cd,,1,0,80,22,1,79
,,,,,,,,,,,,,,,,,,,,,,,,,,,,,,,,,,,c,1.491000175,OC,FALSE,,,,,,,127,cotxe,Catalan,Sounds/cat_cotxe.mp3,2020-06-13_22h03.32.059,TranslationElicitation_spa,3.2.4,Win32,60,5ee3e0ad6b4a780c4b3b39cd,,1,0,80,22,1,79
,,,,,,,,,,,,,,,,,,,,,,,,,,,,,,,,,,,backspace,2.114000082,,TRUE,,,,,,,127,cotxe,Catalan,Sounds/cat_cotxe.mp3,2020-06-13_22h03.32.059,TranslationElicitation_spa,3.2.4,Win32,60,5ee3e0ad6b4a780c4b3b39cd,,1,0,80,22,1,79
,,,,,,,,,,,,,,,,,,,,,,,,,,,,,,,,,,,backspace,2.259000063,,TRUE,,,,,,,127,cotxe,Catalan,Sounds/cat_cotxe.mp3,2020-06-13_22h03.32.059,TranslationElicitation_spa,3.2.4,Win32,60,5ee3e0ad6b4a780c4b3b39cd,,1,0,80,22,1,79
,,,,,,,,,,,,,,,,,,,,,,,,,,,,,,,,,,,backspace,2.414000034,,TRUE,,,,,,,127,cotxe,Catalan,Sounds/cat_cotxe.mp3,2020-06-13_22h03.32.059,TranslationElicitation_spa,3.2.4,Win32,60,5ee3e0ad6b4a780c4b3b39cd,,1,0,80,22,1,79
,,,,,,,,,,,,,,,,,,,,,,,,,,,,,,,,,,,c,2.583000183,C,TRUE,,,,,,,127,cotxe,Catalan,Sounds/cat_cotxe.mp3,2020-06-13_22h03.32.059,TranslationElicitation_spa,3.2.4,Win32,60,5ee3e0ad6b4a780c4b3b39cd,,1,0,80,22,1,79
,,,,,,,,,,,,,,,,,,,,,,,,,,,,,,,,,,,o,2.863000154,CO,TRUE,,,,,,,127,cotxe,Catalan,Sounds/cat_cotxe.mp3,2020-06-13_22h03.32.059,TranslationElicitation_spa,3.2.4,Win32,60,5ee3e0ad6b4a780c4b3b39cd,,1,0,80,22,1,79
,,,,,,,,,,,,,,,,,,,,,,,,,,,,,,,,,,,c,3.096000195,COC,TRUE,,,,,,,127,cotxe,Catalan,Sounds/cat_cotxe.mp3,2020-06-13_22h03.32.059,TranslationElicitation_spa,3.2.4,Win32,60,5ee3e0ad6b4a780c4b3b39cd,,1,0,80,22,1,79
,,,,,,,,,,,,,,,,,,,,,,,,,,,,,,,,,,,h,3.279999971,COCH,TRUE,,,,,,,127,cotxe,Catalan,Sounds/cat_cotxe.mp3,2020-06-13_22h03.32.059,TranslationElicitation_spa,3.2.4,Win32,60,5ee3e0ad6b4a780c4b3b39cd,,1,0,80,22,1,79
,,,,,,,,,,,,,,,,,,,,,,,,,,,,,,,,,,,e,3.54700017,COCHE,TRUE,,,,,,,127,cotxe,Catalan,Sounds/cat_cotxe.mp3,2020-06-13_22h03.32.059,TranslationElicitation_spa,3.2.4,Win32,60,5ee3e0ad6b4a780c4b3b39cd,,1,0,80,22,1,79
,,,,,,,,,,,,,,,,,,,,,,,,,,,,,,,,,,,return,3.982000113,,TRUE,,,,,,,127,cotxe,Catalan,Sounds/cat_cotxe.mp3,2020-06-13_22h03.32.059,TranslationElicitation_spa,3.2.4,Win32,60,5ee3e0ad6b4a780c4b3b39cd,3.982000113,1,0,80,22,1,79
,,,,,,,,,,,,,,,,,,,,,,,,,,,,,,,,,,,,,,,,,,,,,127,cotxe,Catalan,Sounds/cat_cotxe.mp3,2020-06-13_22h03.32.059,TranslationElicitation_spa,3.2.4,Win32,60,5ee3e0ad6b4a780c4b3b39cd,,1,0,80,22,1,79
,,,,,,,,,,,,,,,,,,,,,,,,,,,,,,,,,,,j,1.480000019,J,FALSE,,,,,,,142,girafa,Catalan,Sounds/cat_girafa.mp3,2020-06-13_22h03.32.059,TranslationElicitation_spa,3.2.4,Win32,60,5ee3e0ad6b4a780c4b3b39cd,,1,0,80,37,1,79
,,,,,,,,,,,,,,,,,,,,,,,,,,,,,,,,,,,i,1.562999964,JI,FALSE,,,,,,,142,girafa,Catalan,Sounds/cat_girafa.mp3,2020-06-13_22h03.32.059,TranslationElicitation_spa,3.2.4,Win32,60,5ee3e0ad6b4a780c4b3b39cd,,1,0,80,37,1,79
,,,,,,,,,,,,,,,,,,,,,,,,,,,,,,,,,,,r,1.670000076,JIR,FALSE,,,,,,,142,girafa,Catalan,Sounds/cat_girafa.mp3,2020-06-13_22h03.32.059,TranslationElicitation_spa,3.2.4,Win32,60,5ee3e0ad6b4a780c4b3b39cd,,1,0,80,37,1,79
,,,,,,,,,,,,,,,,,,,,,,,,,,,,,,,,,,,a,1.812999964,JIRA,FALSE,,,,,,,142,girafa,Catalan,Sounds/cat_girafa.mp3,2020-06-13_22h03.32.059,TranslationElicitation_spa,3.2.4,Win32,60,5ee3e0ad6b4a780c4b3b39cd,,1,0,80,37,1,79
,,,,,,,,,,,,,,,,,,,,,,,,,,,,,,,,,,,f,1.980000019,JIRAF,FALSE,,,,,,,142,girafa,Catalan,Sounds/cat_girafa.mp3,2020-06-13_22h03.32.059,TranslationElicitation_spa,3.2.4,Win32,60,5ee3e0ad6b4a780c4b3b39cd,,1,0,80,37,1,79
,,,,,,,,,,,,,,,,,,,,,,,,,,,,,,,,,,,a,2.164000034,JIRAFA,FALSE,,,,,,,142,girafa,Catalan,Sounds/cat_girafa.mp3,2020-06-13_22h03.32.059,TranslationElicitation_spa,3.2.4,Win32,60,5ee3e0ad6b4a780c4b3b39cd,,1,0,80,37,1,79
,,,,,,,,,,,,,,,,,,,,,,,,,,,,,,,,,,,return,2.546000004,,FALSE,,,,,,,142,girafa,Catalan,Sounds/cat_girafa.mp3,2020-06-13_22h03.32.059,TranslationElicitation_spa,3.2.4,Win32,60,5ee3e0ad6b4a780c4b3b39cd,2.546000004,1,0,80,37,1,79
,,,,,,,,,,,,,,,,,,,,,,,,,,,,,,,,,,,,,,,,,,,,,142,girafa,Catalan,Sounds/cat_girafa.mp3,2020-06-13_22h03.32.059,TranslationElicitation_spa,3.2.4,Win32,60,5ee3e0ad6b4a780c4b3b39cd,,1,0,80,37,1,79
,,,,,,,,,,,,,,,,,,,,,,,,,,,,,,,,,,,m,3.063999891,M,FALSE,,,,,,,157,mussol,Catalan,Sounds/cat_mussol.mp3,2020-06-13_22h03.32.059,TranslationElicitation_spa,3.2.4,Win32,60,5ee3e0ad6b4a780c4b3b39cd,,1,0,80,51,1,79
,,,,,,,,,,,,,,,,,,,,,,,,,,,,,,,,,,,u,3.313999891,MU,FALSE,,,,,,,157,mussol,Catalan,Sounds/cat_mussol.mp3,2020-06-13_22h03.32.059,TranslationElicitation_spa,3.2.4,Win32,60,5ee3e0ad6b4a780c4b3b39cd,,1,0,80,51,1,79
,,,,,,,,,,,,,,,,,,,,,,,,,,,,,,,,,,,s,3.48300004,MUS,FALSE,,,,,,,157,mussol,Catalan,Sounds/cat_mussol.mp3,2020-06-13_22h03.32.059,TranslationElicitation_spa,3.2.4,Win32,60,5ee3e0ad6b4a780c4b3b39cd,,1,0,80,51,1,79
,,,,,,,,,,,,,,,,,,,,,,,,,,,,,,,,,,,e,3.694999933,MUSE,FALSE,,,,,,,157,mussol,Catalan,Sounds/cat_mussol.mp3,2020-06-13_22h03.32.059,TranslationElicitation_spa,3.2.4,Win32,60,5ee3e0ad6b4a780c4b3b39cd,,1,0,80,51,1,79
,,,,,,,,,,,,,,,,,,,,,,,,,,,,,,,,,,,o,3.823999882,MUSEO,FALSE,,,,,,,157,mussol,Catalan,Sounds/cat_mussol.mp3,2020-06-13_22h03.32.059,TranslationElicitation_spa,3.2.4,Win32,60,5ee3e0ad6b4a780c4b3b39cd,,1,0,80,51,1,79
,,,,,,,,,,,,,,,,,,,,,,,,,,,,,,,,,,,return,4.29399991,,FALSE,,,,,,,157,mussol,Catalan,Sounds/cat_mussol.mp3,2020-06-13_22h03.32.059,TranslationElicitation_spa,3.2.4,Win32,60,5ee3e0ad6b4a780c4b3b39cd,4.29399991,1,0,80,51,1,79
,,,,,,,,,,,,,,,,,,,,,,,,,,,,,,,,,,,,,,,,,,,,,157,mussol,Catalan,Sounds/cat_mussol.mp3,2020-06-13_22h03.32.059,TranslationElicitation_spa,3.2.4,Win32,60,5ee3e0ad6b4a780c4b3b39cd,,1,0,80,51,1,79
,,,,,,,,,,,,,,,,,,,,,,,,,,,,,,,,,,,p,2.465999842,P,FALSE,,,,,,,172,poma,Catalan,Sounds/cat_poma.mp3,2020-06-13_22h03.32.059,TranslationElicitation_spa,3.2.4,Win32,60,5ee3e0ad6b4a780c4b3b39cd,,1,0,80,64,1,79
,,,,,,,,,,,,,,,,,,,,,,,,,,,,,,,,,,,u,2.708999872,PU,FALSE,,,,,,,172,poma,Catalan,Sounds/cat_poma.mp3,2020-06-13_22h03.32.059,TranslationElicitation_spa,3.2.4,Win32,60,5ee3e0ad6b4a780c4b3b39cd,,1,0,80,64,1,79
,,,,,,,,,,,,,,,,,,,,,,,,,,,,,,,,,,,e,2.899999857,PUE,FALSE,,,,,,,172,poma,Catalan,Sounds/cat_poma.mp3,2020-06-13_22h03.32.059,TranslationElicitation_spa,3.2.4,Win32,60,5ee3e0ad6b4a780c4b3b39cd,,1,0,80,64,1,79
,,,,,,,,,,,,,,,,,,,,,,,,,,,,,,,,,,,r,2.967000008,PUER,FALSE,,,,,,,172,poma,Catalan,Sounds/cat_poma.mp3,2020-06-13_22h03.32.059,TranslationElicitation_spa,3.2.4,Win32,60,5ee3e0ad6b4a780c4b3b39cd,,1,0,80,64,1,79
,,,,,,,,,,,,,,,,,,,,,,,,,,,,,,,,,,,t,3.165999889,PUERT,FALSE,,,,,,,172,poma,Catalan,Sounds/cat_poma.mp3,2020-06-13_22h03.32.059,TranslationElicitation_spa,3.2.4,Win32,60,5ee3e0ad6b4a780c4b3b39cd,,1,0,80,64,1,79
,,,,,,,,,,,,,,,,,,,,,,,,,,,,,,,,,,,a,3.431999922,PUERTA,FALSE,,,,,,,172,poma,Catalan,Sounds/cat_poma.mp3,2020-06-13_22h03.32.059,TranslationElicitation_spa,3.2.4,Win32,60,5ee3e0ad6b4a780c4b3b39cd,,1,0,80,64,1,79
,,,,,,,,,,,,,,,,,,,,,,,,,,,,,,,,,,,return,3.698999882,,FALSE,,,,,,,172,poma,Catalan,Sounds/cat_poma.mp3,2020-06-13_22h03.32.059,TranslationElicitation_spa,3.2.4,Win32,60,5ee3e0ad6b4a780c4b3b39cd,3.698999882,1,0,80,64,1,79
,,,,,,,,,,,,,,,,,,,,,,,,,,,,,,,,,,,,,,,,,,,,,172,poma,Catalan,Sounds/cat_poma.mp3,2020-06-13_22h03.32.059,TranslationElicitation_spa,3.2.4,Win32,60,5ee3e0ad6b4a780c4b3b39cd,,1,0,80,64,1,79
,,,,,,,,,,,,,,,,,,,,,,,,,,,,,,,,,,,c,1.271000147,C,FALSE,,,,,,,121,camisa,Catalan,Sounds/cat_camisa.mp3,2020-06-13_22h03.32.059,TranslationElicitation_spa,3.2.4,Win32,60,5ee3e0ad6b4a780c4b3b39cd,,1,0,80,16,1,79
,,,,,,,,,,,,,,,,,,,,,,,,,,,,,,,,,,,a,1.442000151,CA,FALSE,,,,,,,121,camisa,Catalan,Sounds/cat_camisa.mp3,2020-06-13_22h03.32.059,TranslationElicitation_spa,3.2.4,Win32,60,5ee3e0ad6b4a780c4b3b39cd,,1,0,80,16,1,79
,,,,,,,,,,,,,,,,,,,,,,,,,,,,,,,,,,,m,1.594000101,CAM,FALSE,,,,,,,121,camisa,Catalan,Sounds/cat_camisa.mp3,2020-06-13_22h03.32.059,TranslationElicitation_spa,3.2.4,Win32,60,5ee3e0ad6b4a780c4b3b39cd,,1,0,80,16,1,79
,,,,,,,,,,,,,,,,,,,,,,,,,,,,,,,,,,,i,1.680000067,CAMI,FALSE,,,,,,,121,camisa,Catalan,Sounds/cat_camisa.mp3,2020-06-13_22h03.32.059,TranslationElicitation_spa,3.2.4,Win32,60,5ee3e0ad6b4a780c4b3b39cd,,1,0,80,16,1,79
,,,,,,,,,,,,,,,,,,,,,,,,,,,,,,,,,,,s,1.759000063,CAMIS,FALSE,,,,,,,121,camisa,Catalan,Sounds/cat_camisa.mp3,2020-06-13_22h03.32.059,TranslationElicitation_spa,3.2.4,Win32,60,5ee3e0ad6b4a780c4b3b39cd,,1,0,80,16,1,79
,,,,,,,,,,,,,,,,,,,,,,,,,,,,,,,,,,,a,1.878000021,CAMISA,FALSE,,,,,,,121,camisa,Catalan,Sounds/cat_camisa.mp3,2020-06-13_22h03.32.059,TranslationElicitation_spa,3.2.4,Win32,60,5ee3e0ad6b4a780c4b3b39cd,,1,0,80,16,1,79
,,,,,,,,,,,,,,,,,,,,,,,,,,,,,,,,,,,return,2.347000122,,FALSE,,,,,,,121,camisa,Catalan,Sounds/cat_camisa.mp3,2020-06-13_22h03.32.059,TranslationElicitation_spa,3.2.4,Win32,60,5ee3e0ad6b4a780c4b3b39cd,2.347000122,1,0,80,16,1,79
,,,,,,,,,,,,,,,,,,,,,,,,,,,,,,,,,,,,,,,,,,,,,121,camisa,Catalan,Sounds/cat_camisa.mp3,2020-06-13_22h03.32.059,TranslationElicitation_spa,3.2.4,Win32,60,5ee3e0ad6b4a780c4b3b39cd,,1,0,80,16,1,79
,,,,,,,,,,,,,,,,,,,,,,,,,,,,,,,,,,,p,2.285000086,P,FALSE,,,,,,,169,plat,Catalan,Sounds/cat_plat.mp3,2020-06-13_22h03.32.059,TranslationElicitation_spa,3.2.4,Win32,60,5ee3e0ad6b4a780c4b3b39cd,,1,0,80,61,1,79
,,,,,,,,,,,,,,,,,,,,,,,,,,,,,,,,,,,l,2.381999969,PL,FALSE,,,,,,,169,plat,Catalan,Sounds/cat_plat.mp3,2020-06-13_22h03.32.059,TranslationElicitation_spa,3.2.4,Win32,60,5ee3e0ad6b4a780c4b3b39cd,,1,0,80,61,1,79
,,,,,,,,,,,,,,,,,,,,,,,,,,,,,,,,,,,a,2.476000071,PLA,FALSE,,,,,,,169,plat,Catalan,Sounds/cat_plat.mp3,2020-06-13_22h03.32.059,TranslationElicitation_spa,3.2.4,Win32,60,5ee3e0ad6b4a780c4b3b39cd,,1,0,80,61,1,79
,,,,,,,,,,,,,,,,,,,,,,,,,,,,,,,,,,,t,2.714999914,PLAT,FALSE,,,,,,,169,plat,Catalan,Sounds/cat_plat.mp3,2020-06-13_22h03.32.059,TranslationElicitation_spa,3.2.4,Win32,60,5ee3e0ad6b4a780c4b3b39cd,,1,0,80,61,1,79
,,,,,,,,,,,,,,,,,,,,,,,,,,,,,,,,,,,o,2.822000027,PLATO,FALSE,,,,,,,169,plat,Catalan,Sounds/cat_plat.mp3,2020-06-13_22h03.32.059,TranslationElicitation_spa,3.2.4,Win32,60,5ee3e0ad6b4a780c4b3b39cd,,1,0,80,61,1,79
,,,,,,,,,,,,,,,,,,,,,,,,,,,,,,,,,,,return,3.181999922,,FALSE,,,,,,,169,plat,Catalan,Sounds/cat_plat.mp3,2020-06-13_22h03.32.059,TranslationElicitation_spa,3.2.4,Win32,60,5ee3e0ad6b4a780c4b3b39cd,3.181999922,1,0,80,61,1,79
,,,,,,,,,,,,,,,,,,,,,,,,,,,,,,,,,,,,,,,,,,,,,169,plat,Catalan,Sounds/cat_plat.mp3,2020-06-13_22h03.32.059,TranslationElicitation_spa,3.2.4,Win32,60,5ee3e0ad6b4a780c4b3b39cd,,1,0,80,61,1,79
,,,,,,,,,,,,,,,,,,,,,,,,,,,,,,,,,,,c,1.309999943,C,FALSE,,,,,,,123,cavall,Catalan,Sounds/cat_cavall.mp3,2020-06-13_22h03.32.059,TranslationElicitation_spa,3.2.4,Win32,60,5ee3e0ad6b4a780c4b3b39cd,,1,0,80,18,1,79
,,,,,,,,,,,,,,,,,,,,,,,,,,,,,,,,,,,a,1.489000082,CA,FALSE,,,,,,,123,cavall,Catalan,Sounds/cat_cavall.mp3,2020-06-13_22h03.32.059,TranslationElicitation_spa,3.2.4,Win32,60,5ee3e0ad6b4a780c4b3b39cd,,1,0,80,18,1,79
,,,,,,,,,,,,,,,,,,,,,,,,,,,,,,,,,,,b,1.710000038,CAB,FALSE,,,,,,,123,cavall,Catalan,Sounds/cat_cavall.mp3,2020-06-13_22h03.32.059,TranslationElicitation_spa,3.2.4,Win32,60,5ee3e0ad6b4a780c4b3b39cd,,1,0,80,18,1,79
,,,,,,,,,,,,,,,,,,,,,,,,,,,,,,,,,,,a,1.927000046,CABA,FALSE,,,,,,,123,cavall,Catalan,Sounds/cat_cavall.mp3,2020-06-13_22h03.32.059,TranslationElicitation_spa,3.2.4,Win32,60,5ee3e0ad6b4a780c4b3b39cd,,1,0,80,18,1,79
,,,,,,,,,,,,,,,,,,,,,,,,,,,,,,,,,,,l,2.090000153,CABAL,FALSE,,,,,,,123,cavall,Catalan,Sounds/cat_cavall.mp3,2020-06-13_22h03.32.059,TranslationElicitation_spa,3.2.4,Win32,60,5ee3e0ad6b4a780c4b3b39cd,,1,0,80,18,1,79
,,,,,,,,,,,,,,,,,,,,,,,,,,,,,,,,,,,l,2.27699995,CABALL,FALSE,,,,,,,123,cavall,Catalan,Sounds/cat_cavall.mp3,2020-06-13_22h03.32.059,TranslationElicitation_spa,3.2.4,Win32,60,5ee3e0ad6b4a780c4b3b39cd,,1,0,80,18,1,79
,,,,,,,,,,,,,,,,,,,,,,,,,,,,,,,,,,,o,2.443000078,CABALLO,FALSE,,,,,,,123,cavall,Catalan,Sounds/cat_cavall.mp3,2020-06-13_22h03.32.059,TranslationElicitation_spa,3.2.4,Win32,60,5ee3e0ad6b4a780c4b3b39cd,,1,0,80,18,1,79
,,,,,,,,,,,,,,,,,,,,,,,,,,,,,,,,,,,return,2.697000027,,FALSE,,,,,,,123,cavall,Catalan,Sounds/cat_cavall.mp3,2020-06-13_22h03.32.059,TranslationElicitation_spa,3.2.4,Win32,60,5ee3e0ad6b4a780c4b3b39cd,2.697000027,1,0,80,18,1,79
,,,,,,,,,,,,,,,,,,,,,,,,,,,,,,,,,,,,,,,,,,,,,123,cavall,Catalan,Sounds/cat_cavall.mp3,2020-06-13_22h03.32.059,TranslationElicitation_spa,3.2.4,Win32,60,5ee3e0ad6b4a780c4b3b39cd,,1,0,80,18,1,79
,,,,,,,,,,,,,,,,,,,,,,,,,,,,,,,,,,,f,3.247000217,F,FALSE,,,,,,,111,bibero,Catalan,Sounds/cat_bibero.mp3,2020-06-13_22h03.32.059,TranslationElicitation_spa,3.2.4,Win32,60,5ee3e0ad6b4a780c4b3b39cd,,1,0,80,6,1,79
,,,,,,,,,,,,,,,,,,,,,,,,,,,,,,,,,,,e,3.382000208,FE,FALSE,,,,,,,111,bibero,Catalan,Sounds/cat_bibero.mp3,2020-06-13_22h03.32.059,TranslationElicitation_spa,3.2.4,Win32,60,5ee3e0ad6b4a780c4b3b39cd,,1,0,80,6,1,79
,,,,,,,,,,,,,,,,,,,,,,,,,,,,,,,,,,,backspace,4.43200016,,TRUE,,,,,,,111,bibero,Catalan,Sounds/cat_bibero.mp3,2020-06-13_22h03.32.059,TranslationElicitation_spa,3.2.4,Win32,60,5ee3e0ad6b4a780c4b3b39cd,,1,0,80,6,1,79
,,,,,,,,,,,,,,,,,,,,,,,,,,,,,,,,,,,backspace,4.697000027,,TRUE,,,,,,,111,bibero,Catalan,Sounds/cat_bibero.mp3,2020-06-13_22h03.32.059,TranslationElicitation_spa,3.2.4,Win32,60,5ee3e0ad6b4a780c4b3b39cd,,1,0,80,6,1,79
,,,,,,,,,,,,,,,,,,,,,,,,,,,,,,,,,,,v,5.232000113,V,TRUE,,,,,,,111,bibero,Catalan,Sounds/cat_bibero.mp3,2020-06-13_22h03.32.059,TranslationElicitation_spa,3.2.4,Win32,60,5ee3e0ad6b4a780c4b3b39cd,,1,0,80,6,1,79
,,,,,,,,,,,,,,,,,,,,,,,,,,,,,,,,,,,backspace,5.597000122,,TRUE,,,,,,,111,bibero,Catalan,Sounds/cat_bibero.mp3,2020-06-13_22h03.32.059,TranslationElicitation_spa,3.2.4,Win32,60,5ee3e0ad6b4a780c4b3b39cd,,1,0,80,6,1,79
,,,,,,,,,,,,,,,,,,,,,,,,,,,,,,,,,,,b,5.747000217,B,TRUE,,,,,,,111,bibero,Catalan,Sounds/cat_bibero.mp3,2020-06-13_22h03.32.059,TranslationElicitation_spa,3.2.4,Win32,60,5ee3e0ad6b4a780c4b3b39cd,,1,0,80,6,1,79
,,,,,,,,,,,,,,,,,,,,,,,,,,,,,,,,,,,i,5.906000137,BI,TRUE,,,,,,,111,bibero,Catalan,Sounds/cat_bibero.mp3,2020-06-13_22h03.32.059,TranslationElicitation_spa,3.2.4,Win32,60,5ee3e0ad6b4a780c4b3b39cd,,1,0,80,6,1,79
,,,,,,,,,,,,,,,,,,,,,,,,,,,,,,,,,,,b,6.021000147,BIB,TRUE,,,,,,,111,bibero,Catalan,Sounds/cat_bibero.mp3,2020-06-13_22h03.32.059,TranslationElicitation_spa,3.2.4,Win32,60,5ee3e0ad6b4a780c4b3b39cd,,1,0,80,6,1,79
,,,,,,,,,,,,,,,,,,,,,,,,,,,,,,,,,,,r,6.75999999,BIBR,TRUE,,,,,,,111,bibero,Catalan,Sounds/cat_bibero.mp3,2020-06-13_22h03.32.059,TranslationElicitation_spa,3.2.4,Win32,60,5ee3e0ad6b4a780c4b3b39cd,,1,0,80,6,1,79
,,,,,,,,,,,,,,,,,,,,,,,,,,,,,,,,,,,backspace,7.179000139,BI,TRUE,,,,,,,111,bibero,Catalan,Sounds/cat_bibero.mp3,2020-06-13_22h03.32.059,TranslationElicitation_spa,3.2.4,Win32,60,5ee3e0ad6b4a780c4b3b39cd,,1,0,80,6,1,79
,,,,,,,,,,,,,,,,,,,,,,,,,,,,,,,,,,,e,7.232000113,BIE,TRUE,,,,,,,111,bibero,Catalan,Sounds/cat_bibero.mp3,2020-06-13_22h03.32.059,TranslationElicitation_spa,3.2.4,Win32,60,5ee3e0ad6b4a780c4b3b39cd,,1,0,80,6,1,79
,,,,,,,,,,,,,,,,,,,,,,,,,,,,,,,,,,,r,7.281000137,BIER,TRUE,,,,,,,111,bibero,Catalan,Sounds/cat_bibero.mp3,2020-06-13_22h03.32.059,TranslationElicitation_spa,3.2.4,Win32,60,5ee3e0ad6b4a780c4b3b39cd,,1,0,80,6,1,79
,,,,,,,,,,,,,,,,,,,,,,,,,,,,,,,,,,,backspace,8.58100009,BI,TRUE,,,,,,,111,bibero,Catalan,Sounds/cat_bibero.mp3,2020-06-13_22h03.32.059,TranslationElicitation_spa,3.2.4,Win32,60,5ee3e0ad6b4a780c4b3b39cd,,1,0,80,6,1,79
,,,,,,,,,,,,,,,,,,,,,,,,,,,,,,,,,,,backspace,8.737000227,,TRUE,,,,,,,111,bibero,Catalan,Sounds/cat_bibero.mp3,2020-06-13_22h03.32.059,TranslationElicitation_spa,3.2.4,Win32,60,5ee3e0ad6b4a780c4b3b39cd,,1,0,80,6,1,79
,,,,,,,,,,,,,,,,,,,,,,,,,,,,,,,,,,,b,9.482000113,B,TRUE,,,,,,,111,bibero,Catalan,Sounds/cat_bibero.mp3,2020-06-13_22h03.32.059,TranslationElicitation_spa,3.2.4,Win32,60,5ee3e0ad6b4a780c4b3b39cd,,1,0,80,6,1,79
,,,,,,,,,,,,,,,,,,,,,,,,,,,,,,,,,,,i,9.606000185,BI,TRUE,,,,,,,111,bibero,Catalan,Sounds/cat_bibero.mp3,2020-06-13_22h03.32.059,TranslationElicitation_spa,3.2.4,Win32,60,5ee3e0ad6b4a780c4b3b39cd,,1,0,80,6,1,79
,,,,,,,,,,,,,,,,,,,,,,,,,,,,,,,,,,,b,9.664000034,BIB,TRUE,,,,,,,111,bibero,Catalan,Sounds/cat_bibero.mp3,2020-06-13_22h03.32.059,TranslationElicitation_spa,3.2.4,Win32,60,5ee3e0ad6b4a780c4b3b39cd,,1,0,80,6,1,79
,,,,,,,,,,,,,,,,,,,,,,,,,,,,,,,,,,,e,9.873000145,BIBE,TRUE,,,,,,,111,bibero,Catalan,Sounds/cat_bibero.mp3,2020-06-13_22h03.32.059,TranslationElicitation_spa,3.2.4,Win32,60,5ee3e0ad6b4a780c4b3b39cd,,1,0,80,6,1,79
,,,,,,,,,,,,,,,,,,,,,,,,,,,,,,,,,,,r,9.957000017,BIBER,TRUE,,,,,,,111,bibero,Catalan,Sounds/cat_bibero.mp3,2020-06-13_22h03.32.059,TranslationElicitation_spa,3.2.4,Win32,60,5ee3e0ad6b4a780c4b3b39cd,,1,0,80,6,1,79
,,,,,,,,,,,,,,,,,,,,,,,,,,,,,,,,,,,o,10.17500019,BIBERO,TRUE,,,,,,,111,bibero,Catalan,Sounds/cat_bibero.mp3,2020-06-13_22h03.32.059,TranslationElicitation_spa,3.2.4,Win32,60,5ee3e0ad6b4a780c4b3b39cd,,1,0,80,6,1,79
,,,,,,,,,,,,,,,,,,,,,,,,,,,,,,,,,,,n,10.27100015,BIBERON,TRUE,,,,,,,111,bibero,Catalan,Sounds/cat_bibero.mp3,2020-06-13_22h03.32.059,TranslationElicitation_spa,3.2.4,Win32,60,5ee3e0ad6b4a780c4b3b39cd,,1,0,80,6,1,79
