consentKey.keys,consentKey.rt,languageL1Key.keys,languageL1Key.rt,languageL2,languageL2OralKey.keys,languageL2OralKey.rt,languageL2WrittenKey.keys,languageL2WrittenKey.rt,languageL3OralKey.keys,languageL3OralKey.rt,languageL3WrittenKey.keys,languageL3WrittenKey.rt,languageCatalanOralKey.keys,languageCatalanOralKey.rt,languageCatalanWrittenKey.keys,languageCatalanWrittenKey.rt,languageCatalanTimeKey.keys,languageCatalanTimeKey.rt,age,demoSexKey.keys,demoSexKey.rt,demoEducationKey.keys,demoEducationKey.rt,city,demoVisionKey.keys,demoVisionKey.rt,demoLanguageKey.keys,demoLanguageKey.rt,setupLocationKey.keys,setupLocationKey.rt,setupNoiseKey.keys,setupNoiseKey.rt,instructionsKeys.keys,instructionsKeys.rt,keyPressed,keyPressTime,inputText,error,trials_practice.thisRepN,trials_practice.thisTrialN,trials_practice.thisN,trials_practice.thisIndex,trials_practice.ran,trials_practice.order,trial_id,word,test_language,soundfile,date,expName,psychopyVersion,OS,frameRate,participant,trialOffset,trials.thisRepN,trials.thisTrialN,trials.thisN,trials.thisIndex,trials.ran,trials.order
space,12.56500006,e,5.829000235,SPACE,3,12.10400009,3,7.860000134,1,14.38600016,1,2.962000132,2,7.488000154,1,3.555999994,3,11.11300015,20,m,2.229000092,3,4.521000147,MURCIA,s,3.394999981,n,4.164000034,1,4.44900012,2,13.62700009,space,29.28500009,p,3.677000046,P,FALSE,1,0,5,3,1,4,167,pingui,Catalan,Sounds/cat_pingui.mp3,2020-06-13_22h26.53.156,TranslationElicitation_spa,3.2.4,Win32,60,5ee3dcd47bfde60b782a3f3d,,,,,,,
,,,,,,,,,,,,,,,,,,,,,,,,,,,,,,,,,,,i,3.976999998,PI,FALSE,1,0,5,3,1,4,167,pingui,Catalan,Sounds/cat_pingui.mp3,2020-06-13_22h26.53.156,TranslationElicitation_spa,3.2.4,Win32,60,5ee3dcd47bfde60b782a3f3d,,,,,,,
,,,,,,,,,,,,,,,,,,,,,,,,,,,,,,,,,,,n,4.226999998,PIN,FALSE,1,0,5,3,1,4,167,pingui,Catalan,Sounds/cat_pingui.mp3,2020-06-13_22h26.53.156,TranslationElicitation_spa,3.2.4,Win32,60,5ee3dcd47bfde60b782a3f3d,,,,,,,
,,,,,,,,,,,,,,,,,,,,,,,,,,,,,,,,,,,g,4.377000093,PING,FALSE,1,0,5,3,1,4,167,pingui,Catalan,Sounds/cat_pingui.mp3,2020-06-13_22h26.53.156,TranslationElicitation_spa,3.2.4,Win32,60,5ee3dcd47bfde60b782a3f3d,,,,,,,
,,,,,,,,,,,,,,,,,,,,,,,,,,,,,,,,,,,u,4.578000069,PINGU,FALSE,1,0,5,3,1,4,167,pingui,Catalan,Sounds/cat_pingui.mp3,2020-06-13_22h26.53.156,TranslationElicitation_spa,3.2.4,Win32,60,5ee3dcd47bfde60b782a3f3d,,,,,,,
,,,,,,,,,,,,,,,,,,,,,,,,,,,,,,,,,,,i,4.792999983,PINGUI,FALSE,1,0,5,3,1,4,167,pingui,Catalan,Sounds/cat_pingui.mp3,2020-06-13_22h26.53.156,TranslationElicitation_spa,3.2.4,Win32,60,5ee3dcd47bfde60b782a3f3d,,,,,,,
,,,,,,,,,,,,,,,,,,,,,,,,,,,,,,,,,,,n,5.243000031,PINGUIN,FALSE,1,0,5,3,1,4,167,pingui,Catalan,Sounds/cat_pingui.mp3,2020-06-13_22h26.53.156,TranslationElicitation_spa,3.2.4,Win32,60,5ee3dcd47bfde60b782a3f3d,,,,,,,
,,,,,,,,,,,,,,,,,,,,,,,,,,,,,,,,,,,o,5.575999975,PINGUINO,FALSE,1,0,5,3,1,4,167,pingui,Catalan,Sounds/cat_pingui.mp3,2020-06-13_22h26.53.156,TranslationElicitation_spa,3.2.4,Win32,60,5ee3dcd47bfde60b782a3f3d,,,,,,,
,,,,,,,,,,,,,,,,,,,,,,,,,,,,,,,,,,,return,6.191999912,,FALSE,1,0,5,3,1,4,167,pingui,Catalan,Sounds/cat_pingui.mp3,2020-06-13_22h26.53.156,TranslationElicitation_spa,3.2.4,Win32,60,5ee3dcd47bfde60b782a3f3d,6.191999912,,,,,,
,,,,,,,,,,,,,,,,,,,,,,,,,,,,,,,,,,,,,,,1,0,5,3,1,4,167,pingui,Catalan,Sounds/cat_pingui.mp3,2020-06-13_22h26.53.156,TranslationElicitation_spa,3.2.4,Win32,60,5ee3dcd47bfde60b782a3f3d,,,,,,,
,,,,,,,,,,,,,,,,,,,,,,,,,,,,,,,,,,,t,2.148000002,T,FALSE,1,0,5,4,1,4,179,tigre,Catalan,Sounds/cat_tigre.mp3,2020-06-13_22h26.53.156,TranslationElicitation_spa,3.2.4,Win32,60,5ee3dcd47bfde60b782a3f3d,,,,,,,
,,,,,,,,,,,,,,,,,,,,,,,,,,,,,,,,,,,i,2.330999851,TI,FALSE,1,0,5,4,1,4,179,tigre,Catalan,Sounds/cat_tigre.mp3,2020-06-13_22h26.53.156,TranslationElicitation_spa,3.2.4,Win32,60,5ee3dcd47bfde60b782a3f3d,,,,,,,
,,,,,,,,,,,,,,,,,,,,,,,,,,,,,,,,,,,g,2.664000034,TIG,FALSE,1,0,5,4,1,4,179,tigre,Catalan,Sounds/cat_tigre.mp3,2020-06-13_22h26.53.156,TranslationElicitation_spa,3.2.4,Win32,60,5ee3dcd47bfde60b782a3f3d,,,,,,,
,,,,,,,,,,,,,,,,,,,,,,,,,,,,,,,,,,,r,2.863999844,TIGR,FALSE,1,0,5,4,1,4,179,tigre,Catalan,Sounds/cat_tigre.mp3,2020-06-13_22h26.53.156,TranslationElicitation_spa,3.2.4,Win32,60,5ee3dcd47bfde60b782a3f3d,,,,,,,
,,,,,,,,,,,,,,,,,,,,,,,,,,,,,,,,,,,e,2.997999907,TIGRE,FALSE,1,0,5,4,1,4,179,tigre,Catalan,Sounds/cat_tigre.mp3,2020-06-13_22h26.53.156,TranslationElicitation_spa,3.2.4,Win32,60,5ee3dcd47bfde60b782a3f3d,,,,,,,
,,,,,,,,,,,,,,,,,,,,,,,,,,,,,,,,,,,return,3.447000027,,FALSE,1,0,5,4,1,4,179,tigre,Catalan,Sounds/cat_tigre.mp3,2020-06-13_22h26.53.156,TranslationElicitation_spa,3.2.4,Win32,60,5ee3dcd47bfde60b782a3f3d,3.447000027,,,,,,
,,,,,,,,,,,,,,,,,,,,,,,,,,,,,,,,,,,,,,,1,0,5,4,1,4,179,tigre,Catalan,Sounds/cat_tigre.mp3,2020-06-13_22h26.53.156,TranslationElicitation_spa,3.2.4,Win32,60,5ee3dcd47bfde60b782a3f3d,,,,,,,
,,,,,,,,,,,,,,,,,,,,,,,,,,,,,,,,,,,c,2.079999924,C,FALSE,1,0,5,1,1,4,147,jaqueta,Catalan,Sounds/cat_jaqueta.mp3,2020-06-13_22h26.53.156,TranslationElicitation_spa,3.2.4,Win32,60,5ee3dcd47bfde60b782a3f3d,,,,,,,
,,,,,,,,,,,,,,,,,,,,,,,,,,,,,,,,,,,h,2.296999931,CH,FALSE,1,0,5,1,1,4,147,jaqueta,Catalan,Sounds/cat_jaqueta.mp3,2020-06-13_22h26.53.156,TranslationElicitation_spa,3.2.4,Win32,60,5ee3dcd47bfde60b782a3f3d,,,,,,,
,,,,,,,,,,,,,,,,,,,,,,,,,,,,,,,,,,,a,2.364000082,CHA,FALSE,1,0,5,1,1,4,147,jaqueta,Catalan,Sounds/cat_jaqueta.mp3,2020-06-13_22h26.53.156,TranslationElicitation_spa,3.2.4,Win32,60,5ee3dcd47bfde60b782a3f3d,,,,,,,
,,,,,,,,,,,,,,,,,,,,,,,,,,,,,,,,,,,q,2.597000122,CHAQ,FALSE,1,0,5,1,1,4,147,jaqueta,Catalan,Sounds/cat_jaqueta.mp3,2020-06-13_22h26.53.156,TranslationElicitation_spa,3.2.4,Win32,60,5ee3dcd47bfde60b782a3f3d,,,,,,,
,,,,,,,,,,,,,,,,,,,,,,,,,,,,,,,,,,,u,2.763000011,CHAQU,FALSE,1,0,5,1,1,4,147,jaqueta,Catalan,Sounds/cat_jaqueta.mp3,2020-06-13_22h26.53.156,TranslationElicitation_spa,3.2.4,Win32,60,5ee3dcd47bfde60b782a3f3d,,,,,,,
,,,,,,,,,,,,,,,,,,,,,,,,,,,,,,,,,,,e,2.913000107,CHAQUE,FALSE,1,0,5,1,1,4,147,jaqueta,Catalan,Sounds/cat_jaqueta.mp3,2020-06-13_22h26.53.156,TranslationElicitation_spa,3.2.4,Win32,60,5ee3dcd47bfde60b782a3f3d,,,,,,,
,,,,,,,,,,,,,,,,,,,,,,,,,,,,,,,,,,,t,3.113000154,CHAQUET,FALSE,1,0,5,1,1,4,147,jaqueta,Catalan,Sounds/cat_jaqueta.mp3,2020-06-13_22h26.53.156,TranslationElicitation_spa,3.2.4,Win32,60,5ee3dcd47bfde60b782a3f3d,,,,,,,
,,,,,,,,,,,,,,,,,,,,,,,,,,,,,,,,,,,a,3.263000011,CHAQUETA,FALSE,1,0,5,1,1,4,147,jaqueta,Catalan,Sounds/cat_jaqueta.mp3,2020-06-13_22h26.53.156,TranslationElicitation_spa,3.2.4,Win32,60,5ee3dcd47bfde60b782a3f3d,,,,,,,
,,,,,,,,,,,,,,,,,,,,,,,,,,,,,,,,,,,return,4.513000011,,FALSE,1,0,5,1,1,4,147,jaqueta,Catalan,Sounds/cat_jaqueta.mp3,2020-06-13_22h26.53.156,TranslationElicitation_spa,3.2.4,Win32,60,5ee3dcd47bfde60b782a3f3d,4.513000011,,,,,,
,,,,,,,,,,,,,,,,,,,,,,,,,,,,,,,,,,,,,,,1,0,5,1,1,4,147,jaqueta,Catalan,Sounds/cat_jaqueta.mp3,2020-06-13_22h26.53.156,TranslationElicitation_spa,3.2.4,Win32,60,5ee3dcd47bfde60b782a3f3d,,,,,,,
,,,,,,,,,,,,,,,,,,,,,,,,,,,,,,,,,,,a,11.49300003,A,FALSE,1,0,5,0,1,4,109,arbre,Catalan,Sounds/cat_arbre.mp3,2020-06-13_22h26.53.156,TranslationElicitation_spa,3.2.4,Win32,60,5ee3dcd47bfde60b782a3f3d,,,,,,,
,,,,,,,,,,,,,,,,,,,,,,,,,,,,,,,,,,,r,11.727,AR,FALSE,1,0,5,0,1,4,109,arbre,Catalan,Sounds/cat_arbre.mp3,2020-06-13_22h26.53.156,TranslationElicitation_spa,3.2.4,Win32,60,5ee3dcd47bfde60b782a3f3d,,,,,,,
,,,,,,,,,,,,,,,,,,,,,,,,,,,,,,,,,,,b,12.17600012,ARB,FALSE,1,0,5,0,1,4,109,arbre,Catalan,Sounds/cat_arbre.mp3,2020-06-13_22h26.53.156,TranslationElicitation_spa,3.2.4,Win32,60,5ee3dcd47bfde60b782a3f3d,,,,,,,
,,,,,,,,,,,,,,,,,,,,,,,,,,,,,,,,,,,o,12.32600021,ARBO,FALSE,1,0,5,0,1,4,109,arbre,Catalan,Sounds/cat_arbre.mp3,2020-06-13_22h26.53.156,TranslationElicitation_spa,3.2.4,Win32,60,5ee3dcd47bfde60b782a3f3d,,,,,,,
,,,,,,,,,,,,,,,,,,,,,,,,,,,,,,,,,,,l,12.52600002,ARBOL,FALSE,1,0,5,0,1,4,109,arbre,Catalan,Sounds/cat_arbre.mp3,2020-06-13_22h26.53.156,TranslationElicitation_spa,3.2.4,Win32,60,5ee3dcd47bfde60b782a3f3d,,,,,,,
,,,,,,,,,,,,,,,,,,,,,,,,,,,,,,,,,,,return,12.92600012,,FALSE,1,0,5,0,1,4,109,arbre,Catalan,Sounds/cat_arbre.mp3,2020-06-13_22h26.53.156,TranslationElicitation_spa,3.2.4,Win32,60,5ee3dcd47bfde60b782a3f3d,12.92600012,,,,,,
,,,,,,,,,,,,,,,,,,,,,,,,,,,,,,,,,,,,,,,1,0,5,0,1,4,109,arbre,Catalan,Sounds/cat_arbre.mp3,2020-06-13_22h26.53.156,TranslationElicitation_spa,3.2.4,Win32,60,5ee3dcd47bfde60b782a3f3d,,,,,,,
,,,,,,,,,,,,,,,,,,,,,,,,,,,,,,,,,,,h,4.613000154,H,FALSE,1,0,5,2,1,4,159,onada,Catalan,Sounds/cat_onada.mp3,2020-06-13_22h26.53.156,TranslationElicitation_spa,3.2.4,Win32,60,5ee3dcd47bfde60b782a3f3d,,,,,,,
,,,,,,,,,,,,,,,,,,,,,,,,,,,,,,,,,,,a,4.763000011,HA,FALSE,1,0,5,2,1,4,159,onada,Catalan,Sounds/cat_onada.mp3,2020-06-13_22h26.53.156,TranslationElicitation_spa,3.2.4,Win32,60,5ee3dcd47bfde60b782a3f3d,,,,,,,
,,,,,,,,,,,,,,,,,,,,,,,,,,,,,,,,,,,d,4.980000019,HAD,FALSE,1,0,5,2,1,4,159,onada,Catalan,Sounds/cat_onada.mp3,2020-06-13_22h26.53.156,TranslationElicitation_spa,3.2.4,Win32,60,5ee3dcd47bfde60b782a3f3d,,,,,,,
,,,,,,,,,,,,,,,,,,,,,,,,,,,,,,,,,,,a,5.09800005,HADA,FALSE,1,0,5,2,1,4,159,onada,Catalan,Sounds/cat_onada.mp3,2020-06-13_22h26.53.156,TranslationElicitation_spa,3.2.4,Win32,60,5ee3dcd47bfde60b782a3f3d,,,,,,,
,,,,,,,,,,,,,,,,,,,,,,,,,,,,,,,,,,,return,5.980000019,,FALSE,1,0,5,2,1,4,159,onada,Catalan,Sounds/cat_onada.mp3,2020-06-13_22h26.53.156,TranslationElicitation_spa,3.2.4,Win32,60,5ee3dcd47bfde60b782a3f3d,5.980000019,,,,,,
,,,,,,,,,,,,,,,,,,,,,,,,,,,,,,,,,,,,,,,1,0,5,2,1,4,159,onada,Catalan,Sounds/cat_onada.mp3,2020-06-13_22h26.53.156,TranslationElicitation_spa,3.2.4,Win32,60,5ee3dcd47bfde60b782a3f3d,,,,,,,
,,,,,,,,,,,,,,,,,,,,,,,,,,,,,,,,,,,a,4.096999884,A,FALSE,,,,,,,105,aigua,Catalan,Sounds/cat_aigua.mp3,2020-06-13_22h26.53.156,TranslationElicitation_spa,3.2.4,Win32,60,5ee3dcd47bfde60b782a3f3d,,1,0,80,1,1,79
,,,,,,,,,,,,,,,,,,,,,,,,,,,,,,,,,,,g,4.429999828,AG,FALSE,,,,,,,105,aigua,Catalan,Sounds/cat_aigua.mp3,2020-06-13_22h26.53.156,TranslationElicitation_spa,3.2.4,Win32,60,5ee3dcd47bfde60b782a3f3d,,1,0,80,1,1,79
,,,,,,,,,,,,,,,,,,,,,,,,,,,,,,,,,,,u,4.596999884,AGU,FALSE,,,,,,,105,aigua,Catalan,Sounds/cat_aigua.mp3,2020-06-13_22h26.53.156,TranslationElicitation_spa,3.2.4,Win32,60,5ee3dcd47bfde60b782a3f3d,,1,0,80,1,1,79
,,,,,,,,,,,,,,,,,,,,,,,,,,,,,,,,,,,a,4.746999979,AGUA,FALSE,,,,,,,105,aigua,Catalan,Sounds/cat_aigua.mp3,2020-06-13_22h26.53.156,TranslationElicitation_spa,3.2.4,Win32,60,5ee3dcd47bfde60b782a3f3d,,1,0,80,1,1,79
,,,,,,,,,,,,,,,,,,,,,,,,,,,,,,,,,,,return,5.496000051,,FALSE,,,,,,,105,aigua,Catalan,Sounds/cat_aigua.mp3,2020-06-13_22h26.53.156,TranslationElicitation_spa,3.2.4,Win32,60,5ee3dcd47bfde60b782a3f3d,5.496000051,1,0,80,1,1,79
,,,,,,,,,,,,,,,,,,,,,,,,,,,,,,,,,,,,,,,,,,,,,105,aigua,Catalan,Sounds/cat_aigua.mp3,2020-06-13_22h26.53.156,TranslationElicitation_spa,3.2.4,Win32,60,5ee3dcd47bfde60b782a3f3d,,1,0,80,1,1,79
,,,,,,,,,,,,,,,,,,,,,,,,,,,,,,,,,,,c,2.580999851,C,FALSE,,,,,,,173,porc,Catalan,Sounds/cat_porc.mp3,2020-06-13_22h26.53.156,TranslationElicitation_spa,3.2.4,Win32,60,5ee3dcd47bfde60b782a3f3d,,1,0,80,65,1,79
,,,,,,,,,,,,,,,,,,,,,,,,,,,,,,,,,,,e,2.851000071,CE,FALSE,,,,,,,173,porc,Catalan,Sounds/cat_porc.mp3,2020-06-13_22h26.53.156,TranslationElicitation_spa,3.2.4,Win32,60,5ee3dcd47bfde60b782a3f3d,,1,0,80,65,1,79
,,,,,,,,,,,,,,,,,,,,,,,,,,,,,,,,,,,r,2.980999947,CER,FALSE,,,,,,,173,porc,Catalan,Sounds/cat_porc.mp3,2020-06-13_22h26.53.156,TranslationElicitation_spa,3.2.4,Win32,60,5ee3dcd47bfde60b782a3f3d,,1,0,80,65,1,79
,,,,,,,,,,,,,,,,,,,,,,,,,,,,,,,,,,,d,3.213999987,CERD,FALSE,,,,,,,173,porc,Catalan,Sounds/cat_porc.mp3,2020-06-13_22h26.53.156,TranslationElicitation_spa,3.2.4,Win32,60,5ee3dcd47bfde60b782a3f3d,,1,0,80,65,1,79
,,,,,,,,,,,,,,,,,,,,,,,,,,,,,,,,,,,o,3.447000027,CERDO,FALSE,,,,,,,173,porc,Catalan,Sounds/cat_porc.mp3,2020-06-13_22h26.53.156,TranslationElicitation_spa,3.2.4,Win32,60,5ee3dcd47bfde60b782a3f3d,,1,0,80,65,1,79
,,,,,,,,,,,,,,,,,,,,,,,,,,,,,,,,,,,return,3.881000042,,FALSE,,,,,,,173,porc,Catalan,Sounds/cat_porc.mp3,2020-06-13_22h26.53.156,TranslationElicitation_spa,3.2.4,Win32,60,5ee3dcd47bfde60b782a3f3d,3.881000042,1,0,80,65,1,79
,,,,,,,,,,,,,,,,,,,,,,,,,,,,,,,,,,,,,,,,,,,,,173,porc,Catalan,Sounds/cat_porc.mp3,2020-06-13_22h26.53.156,TranslationElicitation_spa,3.2.4,Win32,60,5ee3dcd47bfde60b782a3f3d,,1,0,80,65,1,79
,,,,,,,,,,,,,,,,,,,,,,,,,,,,,,,,,,,p,4.513000011,P,FALSE,,,,,,,163,papallona,Catalan,Sounds/cat_papallona.mp3,2020-06-13_22h26.53.156,TranslationElicitation_spa,3.2.4,Win32,60,5ee3dcd47bfde60b782a3f3d,,1,0,80,56,1,79
,,,,,,,,,,,,,,,,,,,,,,,,,,,,,,,,,,,a,6.611999989,PA,FALSE,,,,,,,163,papallona,Catalan,Sounds/cat_papallona.mp3,2020-06-13_22h26.53.156,TranslationElicitation_spa,3.2.4,Win32,60,5ee3dcd47bfde60b782a3f3d,,1,0,80,56,1,79
,,,,,,,,,,,,,,,,,,,,,,,,,,,,,,,,,,,j,6.812000036,PAJ,FALSE,,,,,,,163,papallona,Catalan,Sounds/cat_papallona.mp3,2020-06-13_22h26.53.156,TranslationElicitation_spa,3.2.4,Win32,60,5ee3dcd47bfde60b782a3f3d,,1,0,80,56,1,79
,,,,,,,,,,,,,,,,,,,,,,,,,,,,,,,,,,,a,7.027999878,PAJA,FALSE,,,,,,,163,papallona,Catalan,Sounds/cat_papallona.mp3,2020-06-13_22h26.53.156,TranslationElicitation_spa,3.2.4,Win32,60,5ee3dcd47bfde60b782a3f3d,,1,0,80,56,1,79
,,,,,,,,,,,,,,,,,,,,,,,,,,,,,,,,,,,r,7.461999893,PAJAR,FALSE,,,,,,,163,papallona,Catalan,Sounds/cat_papallona.mp3,2020-06-13_22h26.53.156,TranslationElicitation_spa,3.2.4,Win32,60,5ee3dcd47bfde60b782a3f3d,,1,0,80,56,1,79
,,,,,,,,,,,,,,,,,,,,,,,,,,,,,,,,,,,o,7.644999981,PAJARO,FALSE,,,,,,,163,papallona,Catalan,Sounds/cat_papallona.mp3,2020-06-13_22h26.53.156,TranslationElicitation_spa,3.2.4,Win32,60,5ee3dcd47bfde60b782a3f3d,,1,0,80,56,1,79
,,,,,,,,,,,,,,,,,,,,,,,,,,,,,,,,,,,return,7.944999933,,FALSE,,,,,,,163,papallona,Catalan,Sounds/cat_papallona.mp3,2020-06-13_22h26.53.156,TranslationElicitation_spa,3.2.4,Win32,60,5ee3dcd47bfde60b782a3f3d,7.944999933,1,0,80,56,1,79
,,,,,,,,,,,,,,,,,,,,,,,,,,,,,,,,,,,,,,,,,,,,,163,papallona,Catalan,Sounds/cat_papallona.mp3,2020-06-13_22h26.53.156,TranslationElicitation_spa,3.2.4,Win32,60,5ee3dcd47bfde60b782a3f3d,,1,0,80,56,1,79
,,,,,,,,,,,,,,,,,,,,,,,,,,,,,,,,,,,c,3.729999781,C,FALSE,,,,,,,125,colom,Catalan,Sounds/cat_colom.mp3,2020-06-13_22h26.53.156,TranslationElicitation_spa,3.2.4,Win32,60,5ee3dcd47bfde60b782a3f3d,,1,0,80,20,1,79
,,,,,,,,,,,,,,,,,,,,,,,,,,,,,,,,,,,o,4.713999987,CO,FALSE,,,,,,,125,colom,Catalan,Sounds/cat_colom.mp3,2020-06-13_22h26.53.156,TranslationElicitation_spa,3.2.4,Win32,60,5ee3dcd47bfde60b782a3f3d,,1,0,80,20,1,79
,,,,,,,,,,,,,,,,,,,,,,,,,,,,,,,,,,,l,4.945999861,COL,FALSE,,,,,,,125,colom,Catalan,Sounds/cat_colom.mp3,2020-06-13_22h26.53.156,TranslationElicitation_spa,3.2.4,Win32,60,5ee3dcd47bfde60b782a3f3d,,1,0,80,20,1,79
,,,,,,,,,,,,,,,,,,,,,,,,,,,,,,,,,,,o,7.34499979,COLO,FALSE,,,,,,,125,colom,Catalan,Sounds/cat_colom.mp3,2020-06-13_22h26.53.156,TranslationElicitation_spa,3.2.4,Win32,60,5ee3dcd47bfde60b782a3f3d,,1,0,80,20,1,79
,,,,,,,,,,,,,,,,,,,,,,,,,,,,,,,,,,,n,7.761999846,COLON,FALSE,,,,,,,125,colom,Catalan,Sounds/cat_colom.mp3,2020-06-13_22h26.53.156,TranslationElicitation_spa,3.2.4,Win32,60,5ee3dcd47bfde60b782a3f3d,,1,0,80,20,1,79
,,,,,,,,,,,,,,,,,,,,,,,,,,,,,,,,,,,return,8.544999838,,FALSE,,,,,,,125,colom,Catalan,Sounds/cat_colom.mp3,2020-06-13_22h26.53.156,TranslationElicitation_spa,3.2.4,Win32,60,5ee3dcd47bfde60b782a3f3d,8.544999838,1,0,80,20,1,79
,,,,,,,,,,,,,,,,,,,,,,,,,,,,,,,,,,,,,,,,,,,,,125,colom,Catalan,Sounds/cat_colom.mp3,2020-06-13_22h26.53.156,TranslationElicitation_spa,3.2.4,Win32,60,5ee3dcd47bfde60b782a3f3d,,1,0,80,20,1,79
,,,,,,,,,,,,,,,,,,,,,,,,,,,,,,,,,,,p,2.494000196,P,FALSE,,,,,,,174,porta,Catalan,Sounds/cat_porta.mp3,2020-06-13_22h26.53.156,TranslationElicitation_spa,3.2.4,Win32,60,5ee3dcd47bfde60b782a3f3d,,1,0,80,66,1,79
,,,,,,,,,,,,,,,,,,,,,,,,,,,,,,,,,,,u,2.811000109,PU,FALSE,,,,,,,174,porta,Catalan,Sounds/cat_porta.mp3,2020-06-13_22h26.53.156,TranslationElicitation_spa,3.2.4,Win32,60,5ee3dcd47bfde60b782a3f3d,,1,0,80,66,1,79
,,,,,,,,,,,,,,,,,,,,,,,,,,,,,,,,,,,e,2.911000013,PUE,FALSE,,,,,,,174,porta,Catalan,Sounds/cat_porta.mp3,2020-06-13_22h26.53.156,TranslationElicitation_spa,3.2.4,Win32,60,5ee3dcd47bfde60b782a3f3d,,1,0,80,66,1,79
,,,,,,,,,,,,,,,,,,,,,,,,,,,,,,,,,,,r,2.996000051,PUER,FALSE,,,,,,,174,porta,Catalan,Sounds/cat_porta.mp3,2020-06-13_22h26.53.156,TranslationElicitation_spa,3.2.4,Win32,60,5ee3dcd47bfde60b782a3f3d,,1,0,80,66,1,79
,,,,,,,,,,,,,,,,,,,,,,,,,,,,,,,,,,,t,3.327000141,PUERT,FALSE,,,,,,,174,porta,Catalan,Sounds/cat_porta.mp3,2020-06-13_22h26.53.156,TranslationElicitation_spa,3.2.4,Win32,60,5ee3dcd47bfde60b782a3f3d,,1,0,80,66,1,79
,,,,,,,,,,,,,,,,,,,,,,,,,,,,,,,,,,,o,3.660000086,PUERTO,FALSE,,,,,,,174,porta,Catalan,Sounds/cat_porta.mp3,2020-06-13_22h26.53.156,TranslationElicitation_spa,3.2.4,Win32,60,5ee3dcd47bfde60b782a3f3d,,1,0,80,66,1,79
,,,,,,,,,,,,,,,,,,,,,,,,,,,,,,,,,,,return,4.028000116,,FALSE,,,,,,,174,porta,Catalan,Sounds/cat_porta.mp3,2020-06-13_22h26.53.156,TranslationElicitation_spa,3.2.4,Win32,60,5ee3dcd47bfde60b782a3f3d,4.027000189,1,0,80,66,1,79
,,,,,,,,,,,,,,,,,,,,,,,,,,,,,,,,,,,,,,,,,,,,,174,porta,Catalan,Sounds/cat_porta.mp3,2020-06-13_22h26.53.156,TranslationElicitation_spa,3.2.4,Win32,60,5ee3dcd47bfde60b782a3f3d,,1,0,80,66,1,79
,,,,,,,,,,,,,,,,,,,,,,,,,,,,,,,,,,,n,10.66100001,N,FALSE,,,,,,,130,entrepa,Catalan,Sounds/cat_entrepa.mp3,2020-06-13_22h26.53.156,TranslationElicitation_spa,3.2.4,Win32,60,5ee3dcd47bfde60b782a3f3d,,1,0,80,25,1,79
,,,,,,,,,,,,,,,,,,,,,,,,,,,,,,,,,,,o,10.92799997,NO,FALSE,,,,,,,130,entrepa,Catalan,Sounds/cat_entrepa.mp3,2020-06-13_22h26.53.156,TranslationElicitation_spa,3.2.4,Win32,60,5ee3dcd47bfde60b782a3f3d,,1,0,80,25,1,79
,,,,,,,,,,,,,,,,,,,,,,,,,,,,,,,,,,,backspace,11.51099992,,TRUE,,,,,,,130,entrepa,Catalan,Sounds/cat_entrepa.mp3,2020-06-13_22h26.53.156,TranslationElicitation_spa,3.2.4,Win32,60,5ee3dcd47bfde60b782a3f3d,,1,0,80,25,1,79
,,,,,,,,,,,,,,,,,,,,,,,,,,,,,,,,,,,backspace,11.71099997,,TRUE,,,,,,,130,entrepa,Catalan,Sounds/cat_entrepa.mp3,2020-06-13_22h26.53.156,TranslationElicitation_spa,3.2.4,Win32,60,5ee3dcd47bfde60b782a3f3d,,1,0,80,25,1,79
,,,,,,,,,,,,,,,,,,,,,,,,,,,,,,,,,,,a,12.80999994,A,TRUE,,,,,,,130,entrepa,Catalan,Sounds/cat_entrepa.mp3,2020-06-13_22h26.53.156,TranslationElicitation_spa,3.2.4,Win32,60,5ee3dcd47bfde60b782a3f3d,,1,0,80,25,1,79
,,,,,,,,,,,,,,,,,,,,,,,,,,,,,,,,,,,n,12.99399996,AN,TRUE,,,,,,,130,entrepa,Catalan,Sounds/cat_entrepa.mp3,2020-06-13_22h26.53.156,TranslationElicitation_spa,3.2.4,Win32,60,5ee3dcd47bfde60b782a3f3d,,1,0,80,25,1,79
,,,,,,,,,,,,,,,,,,,,,,,,,,,,,,,,,,,t,13.3599999,ANT,TRUE,,,,,,,130,entrepa,Catalan,Sounds/cat_entrepa.mp3,2020-06-13_22h26.53.156,TranslationElicitation_spa,3.2.4,Win32,60,5ee3dcd47bfde60b782a3f3d,,1,0,80,25,1,79
,,,,,,,,,,,,,,,,,,,,,,,,,,,,,,,,,,,backspace,15.0250001,A,TRUE,,,,,,,130,entrepa,Catalan,Sounds/cat_entrepa.mp3,2020-06-13_22h26.53.156,TranslationElicitation_spa,3.2.4,Win32,60,5ee3dcd47bfde60b782a3f3d,,1,0,80,25,1,79
,,,,,,,,,,,,,,,,,,,,,,,,,,,,,,,,,,,backspace,15.2579999,,TRUE,,,,,,,130,entrepa,Catalan,Sounds/cat_entrepa.mp3,2020-06-13_22h26.53.156,TranslationElicitation_spa,3.2.4,Win32,60,5ee3dcd47bfde60b782a3f3d,,1,0,80,25,1,79
,,,,,,,,,,,,,,,,,,,,,,,,,,,,,,,,,,,a,15.79099989,A,TRUE,,,,,,,130,entrepa,Catalan,Sounds/cat_entrepa.mp3,2020-06-13_22h26.53.156,TranslationElicitation_spa,3.2.4,Win32,60,5ee3dcd47bfde60b782a3f3d,,1,0,80,25,1,79
,,,,,,,,,,,,,,,,,,,,,,,,,,,,,,,,,,,n,16.04099989,AN,TRUE,,,,,,,130,entrepa,Catalan,Sounds/cat_entrepa.mp3,2020-06-13_22h26.53.156,TranslationElicitation_spa,3.2.4,Win32,60,5ee3dcd47bfde60b782a3f3d,,1,0,80,25,1,79
,,,,,,,,,,,,,,,,,,,,,,,,,,,,,,,,,,,t,16.29099989,ANT,TRUE,,,,,,,130,entrepa,Catalan,Sounds/cat_entrepa.mp3,2020-06-13_22h26.53.156,TranslationElicitation_spa,3.2.4,Win32,60,5ee3dcd47bfde60b782a3f3d,,1,0,80,25,1,79
,,,,,,,,,,,,,,,,,,,,,,,,,,,,,,,,,,,r,16.5079999,ANTR,TRUE,,,,,,,130,entrepa,Catalan,Sounds/cat_entrepa.mp3,2020-06-13_22h26.53.156,TranslationElicitation_spa,3.2.4,Win32,60,5ee3dcd47bfde60b782a3f3d,,1,0,80,25,1,79
,,,,,,,,,,,,,,,,,,,,,,,,,,,,,,,,,,,a,16.62400007,ANTRA,TRUE,,,,,,,130,entrepa,Catalan,Sounds/cat_entrepa.mp3,2020-06-13_22h26.53.156,TranslationElicitation_spa,3.2.4,Win32,60,5ee3dcd47bfde60b782a3f3d,,1,0,80,25,1,79
,,,,,,,,,,,,,,,,,,,,,,,,,,,,,,,,,,,p,17.42400002,ANTRAP,TRUE,,,,,,,130,entrepa,Catalan,Sounds/cat_entrepa.mp3,2020-06-13_22h26.53.156,TranslationElicitation_spa,3.2.4,Win32,60,5ee3dcd47bfde60b782a3f3d,,1,0,80,25,1,79
,,,,,,,,,,,,,,,,,,,,,,,,,,,,,,,,,,,a,17.70799994,ANTRAPA,TRUE,,,,,,,130,entrepa,Catalan,Sounds/cat_entrepa.mp3,2020-06-13_22h26.53.156,TranslationElicitation_spa,3.2.4,Win32,60,5ee3dcd47bfde60b782a3f3d,,1,0,80,25,1,79
,,,,,,,,,,,,,,,,,,,,,,,,,,,,,,,,,,,backspace,18.546,ANTRA,TRUE,,,,,,,130,entrepa,Catalan,Sounds/cat_entrepa.mp3,2020-06-13_22h26.53.156,TranslationElicitation_spa,3.2.4,Win32,60,5ee3dcd47bfde60b782a3f3d,,1,0,80,25,1,79
,,,,,,,,,,,,,,,,,,,,,,,,,,,,,,,,,,,apostrophe,19.20799994,ANTRA,TRUE,,,,,,,130,entrepa,Catalan,Sounds/cat_entrepa.mp3,2020-06-13_22h26.53.156,TranslationElicitation_spa,3.2.4,Win32,60,5ee3dcd47bfde60b782a3f3d,,1,0,80,25,1,79
,,,,,,,,,,,,,,,,,,,,,,,,,,,,,,,,,,,a,19.33999991,ANTRAÁ,TRUE,,,,,,,130,entrepa,Catalan,Sounds/cat_entrepa.mp3,2020-06-13_22h26.53.156,TranslationElicitation_spa,3.2.4,Win32,60,5ee3dcd47bfde60b782a3f3d,,1,0,80,25,1,79
,,,,,,,,,,,,,,,,,,,,,,,,,,,,,,,,,,,backspace,20.15700006,ANTR,TRUE,,,,,,,130,entrepa,Catalan,Sounds/cat_entrepa.mp3,2020-06-13_22h26.53.156,TranslationElicitation_spa,3.2.4,Win32,60,5ee3dcd47bfde60b782a3f3d,,1,0,80,25,1,79
,,,,,,,,,,,,,,,,,,,,,,,,,,,,,,,,,,,backspace,20.32399988,AN,TRUE,,,,,,,130,entrepa,Catalan,Sounds/cat_entrepa.mp3,2020-06-13_22h26.53.156,TranslationElicitation_spa,3.2.4,Win32,60,5ee3dcd47bfde60b782a3f3d,,1,0,80,25,1,79
,,,,,,,,,,,,,,,,,,,,,,,,,,,,,,,,,,,t,21.9059999,ANT,TRUE,,,,,,,130,entrepa,Catalan,Sounds/cat_entrepa.mp3,2020-06-13_22h26.53.156,TranslationElicitation_spa,3.2.4,Win32,60,5ee3dcd47bfde60b782a3f3d,,1,0,80,25,1,79
,,,,,,,,,,,,,,,,,,,,,,,,,,,,,,,,,,,r,22.08999991,ANTR,TRUE,,,,,,,130,entrepa,Catalan,Sounds/cat_entrepa.mp3,2020-06-13_22h26.53.156,TranslationElicitation_spa,3.2.4,Win32,60,5ee3dcd47bfde60b782a3f3d,,1,0,80,25,1,79
,,,,,,,,,,,,,,,,,,,,,,,,,,,,,,,,,,,a,22.19000006,ANTRA,TRUE,,,,,,,130,entrepa,Catalan,Sounds/cat_entrepa.mp3,2020-06-13_22h26.53.156,TranslationElicitation_spa,3.2.4,Win32,60,5ee3dcd47bfde60b782a3f3d,,1,0,80,25,1,79
,,,,,,,,,,,,,,,,,,,,,,,,,,,,,,,,,,,p,22.9059999,ANTRAP,TRUE,,,,,,,130,entrepa,Catalan,Sounds/cat_entrepa.mp3,2020-06-13_22h26.53.156,TranslationElicitation_spa,3.2.4,Win32,60,5ee3dcd47bfde60b782a3f3d,,1,0,80,25,1,79
,,,,,,,,,,,,,,,,,,,,,,,,,,,,,,,,,,,apostrophe,23.23900008,ANTRAP,TRUE,,,,,,,130,entrepa,Catalan,Sounds/cat_entrepa.mp3,2020-06-13_22h26.53.156,TranslationElicitation_spa,3.2.4,Win32,60,5ee3dcd47bfde60b782a3f3d,,1,0,80,25,1,79
,,,,,,,,,,,,,,,,,,,,,,,,,,,,,,,,,,,a,23.35599995,ANTRAPÁ,TRUE,,,,,,,130,entrepa,Catalan,Sounds/cat_entrepa.mp3,2020-06-13_22h26.53.156,TranslationElicitation_spa,3.2.4,Win32,60,5ee3dcd47bfde60b782a3f3d,,1,0,80,25,1,79
,,,,,,,,,,,,,,,,,,,,,,,,,,,,,,,,,,,return,24.05500007,,TRUE,,,,,,,130,entrepa,Catalan,Sounds/cat_entrepa.mp3,2020-06-13_22h26.53.156,TranslationElicitation_spa,3.2.4,Win32,60,5ee3dcd47bfde60b782a3f3d,24.05500007,1,0,80,25,1,79
,,,,,,,,,,,,,,,,,,,,,,,,,,,,,,,,,,,,,,,,,,,,,130,entrepa,Catalan,Sounds/cat_entrepa.mp3,2020-06-13_22h26.53.156,TranslationElicitation_spa,3.2.4,Win32,60,5ee3dcd47bfde60b782a3f3d,,1,0,80,25,1,79
,,,,,,,,,,,,,,,,,,,,,,,,,,,,,,,,,,,b,2.394000053,B,FALSE,,,,,,,112,bici,Catalan,Sounds/cat_bici.mp3,2020-06-13_22h26.53.156,TranslationElicitation_spa,3.2.4,Win32,60,5ee3dcd47bfde60b782a3f3d,,1,0,80,7,1,79
,,,,,,,,,,,,,,,,,,,,,,,,,,,,,,,,,,,i,2.743999958,BI,FALSE,,,,,,,112,bici,Catalan,Sounds/cat_bici.mp3,2020-06-13_22h26.53.156,TranslationElicitation_spa,3.2.4,Win32,60,5ee3dcd47bfde60b782a3f3d,,1,0,80,7,1,79
,,,,,,,,,,,,,,,,,,,,,,,,,,,,,,,,,,,c,2.894000053,BIC,FALSE,,,,,,,112,bici,Catalan,Sounds/cat_bici.mp3,2020-06-13_22h26.53.156,TranslationElicitation_spa,3.2.4,Win32,60,5ee3dcd47bfde60b782a3f3d,,1,0,80,7,1,79
,,,,,,,,,,,,,,,,,,,,,,,,,,,,,,,,,,,i,3.042999983,BICI,FALSE,,,,,,,112,bici,Catalan,Sounds/cat_bici.mp3,2020-06-13_22h26.53.156,TranslationElicitation_spa,3.2.4,Win32,60,5ee3dcd47bfde60b782a3f3d,,1,0,80,7,1,79
,,,,,,,,,,,,,,,,,,,,,,,,,,,,,,,,,,,c,3.610000134,BICIC,FALSE,,,,,,,112,bici,Catalan,Sounds/cat_bici.mp3,2020-06-13_22h26.53.156,TranslationElicitation_spa,3.2.4,Win32,60,5ee3dcd47bfde60b782a3f3d,,1,0,80,7,1,79
,,,,,,,,,,,,,,,,,,,,,,,,,,,,,,,,,,,l,3.75999999,BICICL,FALSE,,,,,,,112,bici,Catalan,Sounds/cat_bici.mp3,2020-06-13_22h26.53.156,TranslationElicitation_spa,3.2.4,Win32,60,5ee3dcd47bfde60b782a3f3d,,1,0,80,7,1,79
,,,,,,,,,,,,,,,,,,,,,,,,,,,,,,,,,,,e,3.980000019,BICICLE,FALSE,,,,,,,112,bici,Catalan,Sounds/cat_bici.mp3,2020-06-13_22h26.53.156,TranslationElicitation_spa,3.2.4,Win32,60,5ee3dcd47bfde60b782a3f3d,,1,0,80,7,1,79
,,,,,,,,,,,,,,,,,,,,,,,,,,,,,,,,,,,t,4.259000063,BICICLET,FALSE,,,,,,,112,bici,Catalan,Sounds/cat_bici.mp3,2020-06-13_22h26.53.156,TranslationElicitation_spa,3.2.4,Win32,60,5ee3dcd47bfde60b782a3f3d,,1,0,80,7,1,79
,,,,,,,,,,,,,,,,,,,,,,,,,,,,,,,,,,,a,4.52699995,BICICLETA,FALSE,,,,,,,112,bici,Catalan,Sounds/cat_bici.mp3,2020-06-13_22h26.53.156,TranslationElicitation_spa,3.2.4,Win32,60,5ee3dcd47bfde60b782a3f3d,,1,0,80,7,1,79
,,,,,,,,,,,,,,,,,,,,,,,,,,,,,,,,,,,return,5.075000048,,FALSE,,,,,,,112,bici,Catalan,Sounds/cat_bici.mp3,2020-06-13_22h26.53.156,TranslationElicitation_spa,3.2.4,Win32,60,5ee3dcd47bfde60b782a3f3d,5.075000048,1,0,80,7,1,79
,,,,,,,,,,,,,,,,,,,,,,,,,,,,,,,,,,,,,,,,,,,,,112,bici,Catalan,Sounds/cat_bici.mp3,2020-06-13_22h26.53.156,TranslationElicitation_spa,3.2.4,Win32,60,5ee3dcd47bfde60b782a3f3d,,1,0,80,7,1,79
,,,,,,,,,,,,,,,,,,,,,,,,,,,,,,,,,,,c,1.463999987,C,FALSE,,,,,,,126,corona,Catalan,Sounds/cat_corona.mp3,2020-06-13_22h26.53.156,TranslationElicitation_spa,3.2.4,Win32,60,5ee3dcd47bfde60b782a3f3d,,1,0,80,21,1,79
,,,,,,,,,,,,,,,,,,,,,,,,,,,,,,,,,,,o,1.829999924,CO,FALSE,,,,,,,126,corona,Catalan,Sounds/cat_corona.mp3,2020-06-13_22h26.53.156,TranslationElicitation_spa,3.2.4,Win32,60,5ee3dcd47bfde60b782a3f3d,,1,0,80,21,1,79
,,,,,,,,,,,,,,,,,,,,,,,,,,,,,,,,,,,r,2.029999971,COR,FALSE,,,,,,,126,corona,Catalan,Sounds/cat_corona.mp3,2020-06-13_22h26.53.156,TranslationElicitation_spa,3.2.4,Win32,60,5ee3dcd47bfde60b782a3f3d,,1,0,80,21,1,79
,,,,,,,,,,,,,,,,,,,,,,,,,,,,,,,,,,,o,2.131999969,CORO,FALSE,,,,,,,126,corona,Catalan,Sounds/cat_corona.mp3,2020-06-13_22h26.53.156,TranslationElicitation_spa,3.2.4,Win32,60,5ee3dcd47bfde60b782a3f3d,,1,0,80,21,1,79
,,,,,,,,,,,,,,,,,,,,,,,,,,,,,,,,,,,n,2.479999781,CORON,FALSE,,,,,,,126,corona,Catalan,Sounds/cat_corona.mp3,2020-06-13_22h26.53.156,TranslationElicitation_spa,3.2.4,Win32,60,5ee3dcd47bfde60b782a3f3d,,1,0,80,21,1,79
,,,,,,,,,,,,,,,,,,,,,,,,,,,,,,,,,,,a,2.629999876,CORONA,FALSE,,,,,,,126,corona,Catalan,Sounds/cat_corona.mp3,2020-06-13_22h26.53.156,TranslationElicitation_spa,3.2.4,Win32,60,5ee3dcd47bfde60b782a3f3d,,1,0,80,21,1,79
,,,,,,,,,,,,,,,,,,,,,,,,,,,,,,,,,,,return,2.829999924,,FALSE,,,,,,,126,corona,Catalan,Sounds/cat_corona.mp3,2020-06-13_22h26.53.156,TranslationElicitation_spa,3.2.4,Win32,60,5ee3dcd47bfde60b782a3f3d,2.829999924,1,0,80,21,1,79
,,,,,,,,,,,,,,,,,,,,,,,,,,,,,,,,,,,,,,,,,,,,,126,corona,Catalan,Sounds/cat_corona.mp3,2020-06-13_22h26.53.156,TranslationElicitation_spa,3.2.4,Win32,60,5ee3dcd47bfde60b782a3f3d,,1,0,80,21,1,79
,,,,,,,,,,,,,,,,,,,,,,,,,,,,,,,,,,,n,7.029000044,N,FALSE,,,,,,,128,cuc,Catalan,Sounds/cat_cuc.mp3,2020-06-13_22h26.53.156,TranslationElicitation_spa,3.2.4,Win32,60,5ee3dcd47bfde60b782a3f3d,,1,0,80,23,1,79
,,,,,,,,,,,,,,,,,,,,,,,,,,,,,,,,,,,i,7.196000099,NI,FALSE,,,,,,,128,cuc,Catalan,Sounds/cat_cuc.mp3,2020-06-13_22h26.53.156,TranslationElicitation_spa,3.2.4,Win32,60,5ee3dcd47bfde60b782a3f3d,,1,0,80,23,1,79
,,,,,,,,,,,,,,,,,,,,,,,,,,,,,,,,,,,space,7.578999996,NI ,FALSE,,,,,,,128,cuc,Catalan,Sounds/cat_cuc.mp3,2020-06-13_22h26.53.156,TranslationElicitation_spa,3.2.4,Win32,60,5ee3dcd47bfde60b782a3f3d,,1,0,80,23,1,79
,,,,,,,,,,,,,,,,,,,,,,,,,,,,,,,,,,,i,7.745000124,NI I,FALSE,,,,,,,128,cuc,Catalan,Sounds/cat_cuc.mp3,2020-06-13_22h26.53.156,TranslationElicitation_spa,3.2.4,Win32,60,5ee3dcd47bfde60b782a3f3d,,1,0,80,23,1,79
,,,,,,,,,,,,,,,,,,,,,,,,,,,,,,,,,,,d,8.078000069,NI ID,FALSE,,,,,,,128,cuc,Catalan,Sounds/cat_cuc.mp3,2020-06-13_22h26.53.156,TranslationElicitation_spa,3.2.4,Win32,60,5ee3dcd47bfde60b782a3f3d,,1,0,80,23,1,79
,,,,,,,,,,,,,,,,,,,,,,,,,,,,,,,,,,,e,8.177999973,NI IDE,FALSE,,,,,,,128,cuc,Catalan,Sounds/cat_cuc.mp3,2020-06-13_22h26.53.156,TranslationElicitation_spa,3.2.4,Win32,60,5ee3dcd47bfde60b782a3f3d,,1,0,80,23,1,79
,,,,,,,,,,,,,,,,,,,,,,,,,,,,,,,,,,,a,8.528000116,NI IDEA,FALSE,,,,,,,128,cuc,Catalan,Sounds/cat_cuc.mp3,2020-06-13_22h26.53.156,TranslationElicitation_spa,3.2.4,Win32,60,5ee3dcd47bfde60b782a3f3d,,1,0,80,23,1,79
,,,,,,,,,,,,,,,,,,,,,,,,,,,,,,,,,,,backspace,9.311000109,NI ID,TRUE,,,,,,,128,cuc,Catalan,Sounds/cat_cuc.mp3,2020-06-13_22h26.53.156,TranslationElicitation_spa,3.2.4,Win32,60,5ee3dcd47bfde60b782a3f3d,,1,0,80,23,1,79
,,,,,,,,,,,,,,,,,,,,,,,,,,,,,,,,,,,backspace,9.828000069,NI ,TRUE,,,,,,,128,cuc,Catalan,Sounds/cat_cuc.mp3,2020-06-13_22h26.53.156,TranslationElicitation_spa,3.2.4,Win32,60,5ee3dcd47bfde60b782a3f3d,,1,0,80,23,1,79
,,,,,,,,,,,,,,,,,,,,,,,,,,,,,,,,,,,backspace,9.861000061,N,TRUE,,,,,,,128,cuc,Catalan,Sounds/cat_cuc.mp3,2020-06-13_22h26.53.156,TranslationElicitation_spa,3.2.4,Win32,60,5ee3dcd47bfde60b782a3f3d,,1,0,80,23,1,79
,,,,,,,,,,,,,,,,,,,,,,,,,,,,,,,,,,,backspace,9.897000074,,TRUE,,,,,,,128,cuc,Catalan,Sounds/cat_cuc.mp3,2020-06-13_22h26.53.156,TranslationElicitation_spa,3.2.4,Win32,60,5ee3dcd47bfde60b782a3f3d,,1,0,80,23,1,79
,,,,,,,,,,,,,,,,,,,,,,,,,,,,,,,,,,,backspace,9.929000139,,TRUE,,,,,,,128,cuc,Catalan,Sounds/cat_cuc.mp3,2020-06-13_22h26.53.156,TranslationElicitation_spa,3.2.4,Win32,60,5ee3dcd47bfde60b782a3f3d,,1,0,80,23,1,79
,,,,,,,,,,,,,,,,,,,,,,,,,,,,,,,,,,,c,15.75900006,C,TRUE,,,,,,,128,cuc,Catalan,Sounds/cat_cuc.mp3,2020-06-13_22h26.53.156,TranslationElicitation_spa,3.2.4,Win32,60,5ee3dcd47bfde60b782a3f3d,,1,0,80,23,1,79
,,,,,,,,,,,,,,,,,,,,,,,,,,,,,,,,,,,o,15.97600007,CO,TRUE,,,,,,,128,cuc,Catalan,Sounds/cat_cuc.mp3,2020-06-13_22h26.53.156,TranslationElicitation_spa,3.2.4,Win32,60,5ee3dcd47bfde60b782a3f3d,,1,0,80,23,1,79
,,,,,,,,,,,,,,,,,,,,,,,,,,,,,,,,,,,c,16.10899997,COC,TRUE,,,,,,,128,cuc,Catalan,Sounds/cat_cuc.mp3,2020-06-13_22h26.53.156,TranslationElicitation_spa,3.2.4,Win32,60,5ee3dcd47bfde60b782a3f3d,,1,0,80,23,1,79
,,,,,,,,,,,,,,,,,,,,,,,,,,,,,,,,,,,o,16.20900011,COCO,TRUE,,,,,,,128,cuc,Catalan,Sounds/cat_cuc.mp3,2020-06-13_22h26.53.156,TranslationElicitation_spa,3.2.4,Win32,60,5ee3dcd47bfde60b782a3f3d,,1,0,80,23,1,79
,,,,,,,,,,,,,,,,,,,,,,,,,,,,,,,,,,,return,16.39300013,,TRUE,,,,,,,128,cuc,Catalan,Sounds/cat_cuc.mp3,2020-06-13_22h26.53.156,TranslationElicitation_spa,3.2.4,Win32,60,5ee3dcd47bfde60b782a3f3d,16.39199996,1,0,80,23,1,79
,,,,,,,,,,,,,,,,,,,,,,,,,,,,,,,,,,,,,,,,,,,,,128,cuc,Catalan,Sounds/cat_cuc.mp3,2020-06-13_22h26.53.156,TranslationElicitation_spa,3.2.4,Win32,60,5ee3dcd47bfde60b782a3f3d,,1,0,80,23,1,79
,,,,,,,,,,,,,,,,,,,,,,,,,,,,,,,,,,,e,6.625,E,FALSE,,,,,,,178,taronja,Catalan,Sounds/cat_taronja.mp3,2020-06-13_22h26.53.156,TranslationElicitation_spa,3.2.4,Win32,60,5ee3dcd47bfde60b782a3f3d,,1,0,80,70,1,79
,,,,,,,,,,,,,,,,,,,,,,,,,,,,,,,,,,,x,6.940999985,EX,FALSE,,,,,,,178,taronja,Catalan,Sounds/cat_taronja.mp3,2020-06-13_22h26.53.156,TranslationElicitation_spa,3.2.4,Win32,60,5ee3dcd47bfde60b782a3f3d,,1,0,80,70,1,79
,,,,,,,,,,,,,,,,,,,,,,,,,,,,,,,,,,,t,7.35800004,EXT,FALSE,,,,,,,178,taronja,Catalan,Sounds/cat_taronja.mp3,2020-06-13_22h26.53.156,TranslationElicitation_spa,3.2.4,Win32,60,5ee3dcd47bfde60b782a3f3d,,1,0,80,70,1,79
,,,,,,,,,,,,,,,,,,,,,,,,,,,,,,,,,,,r,7.523999929,EXTR,FALSE,,,,,,,178,taronja,Catalan,Sounds/cat_taronja.mp3,2020-06-13_22h26.53.156,TranslationElicitation_spa,3.2.4,Win32,60,5ee3dcd47bfde60b782a3f3d,,1,0,80,70,1,79
,,,,,,,,,,,,,,,,,,,,,,,,,,,,,,,,,,,a,7.907000065,EXTRA,FALSE,,,,,,,178,taronja,Catalan,Sounds/cat_taronja.mp3,2020-06-13_22h26.53.156,TranslationElicitation_spa,3.2.4,Win32,60,5ee3dcd47bfde60b782a3f3d,,1,0,80,70,1,79
,,,,,,,,,,,,,,,,,,,,,,,,,,,,,,,,,,,semicolon,8.240999937,EXTRAÑ,FALSE,,,,,,,178,taronja,Catalan,Sounds/cat_taronja.mp3,2020-06-13_22h26.53.156,TranslationElicitation_spa,3.2.4,Win32,60,5ee3dcd47bfde60b782a3f3d,,1,0,80,70,1,79
,,,,,,,,,,,,,,,,,,,,,,,,,,,,,,,,,,,o,8.490999937,EXTRAÑO,FALSE,,,,,,,178,taronja,Catalan,Sounds/cat_taronja.mp3,2020-06-13_22h26.53.156,TranslationElicitation_spa,3.2.4,Win32,60,5ee3dcd47bfde60b782a3f3d,,1,0,80,70,1,79
,,,,,,,,,,,,,,,,,,,,,,,,,,,,,,,,,,,return,8.957000017,,FALSE,,,,,,,178,taronja,Catalan,Sounds/cat_taronja.mp3,2020-06-13_22h26.53.156,TranslationElicitation_spa,3.2.4,Win32,60,5ee3dcd47bfde60b782a3f3d,8.957000017,1,0,80,70,1,79
,,,,,,,,,,,,,,,,,,,,,,,,,,,,,,,,,,,,,,,,,,,,,178,taronja,Catalan,Sounds/cat_taronja.mp3,2020-06-13_22h26.53.156,TranslationElicitation_spa,3.2.4,Win32,60,5ee3dcd47bfde60b782a3f3d,,1,0,80,70,1,79
,,,,,,,,,,,,,,,,,,,,,,,,,,,,,,,,,,,g,1.278000116,G,FALSE,,,,,,,146,guitarra,Catalan,Sounds/cat_guitarra.mp3,2020-06-13_22h26.53.156,TranslationElicitation_spa,3.2.4,Win32,60,5ee3dcd47bfde60b782a3f3d,,1,0,80,41,1,79
,,,,,,,,,,,,,,,,,,,,,,,,,,,,,,,,,,,u,1.444999933,GU,FALSE,,,,,,,146,guitarra,Catalan,Sounds/cat_guitarra.mp3,2020-06-13_22h26.53.156,TranslationElicitation_spa,3.2.4,Win32,60,5ee3dcd47bfde60b782a3f3d,,1,0,80,41,1,79
,,,,,,,,,,,,,,,,,,,,,,,,,,,,,,,,,,,i,1.611999989,GUI,FALSE,,,,,,,146,guitarra,Catalan,Sounds/cat_guitarra.mp3,2020-06-13_22h26.53.156,TranslationElicitation_spa,3.2.4,Win32,60,5ee3dcd47bfde60b782a3f3d,,1,0,80,41,1,79
,,,,,,,,,,,,,,,,,,,,,,,,,,,,,,,,,,,t,1.878000021,GUIT,FALSE,,,,,,,146,guitarra,Catalan,Sounds/cat_guitarra.mp3,2020-06-13_22h26.53.156,TranslationElicitation_spa,3.2.4,Win32,60,5ee3dcd47bfde60b782a3f3d,,1,0,80,41,1,79
,,,,,,,,,,,,,,,,,,,,,,,,,,,,,,,,,,,a,2.260999918,GUITA,FALSE,,,,,,,146,guitarra,Catalan,Sounds/cat_guitarra.mp3,2020-06-13_22h26.53.156,TranslationElicitation_spa,3.2.4,Win32,60,5ee3dcd47bfde60b782a3f3d,,1,0,80,41,1,79
,,,,,,,,,,,,,,,,,,,,,,,,,,,,,,,,,,,r,2.528000116,GUITAR,FALSE,,,,,,,146,guitarra,Catalan,Sounds/cat_guitarra.mp3,2020-06-13_22h26.53.156,TranslationElicitation_spa,3.2.4,Win32,60,5ee3dcd47bfde60b782a3f3d,,1,0,80,41,1,79
,,,,,,,,,,,,,,,,,,,,,,,,,,,,,,,,,,,r,2.694000006,GUITARR,FALSE,,,,,,,146,guitarra,Catalan,Sounds/cat_guitarra.mp3,2020-06-13_22h26.53.156,TranslationElicitation_spa,3.2.4,Win32,60,5ee3dcd47bfde60b782a3f3d,,1,0,80,41,1,79
,,,,,,,,,,,,,,,,,,,,,,,,,,,,,,,,,,,a,2.878000021,GUITARRA,FALSE,,,,,,,146,guitarra,Catalan,Sounds/cat_guitarra.mp3,2020-06-13_22h26.53.156,TranslationElicitation_spa,3.2.4,Win32,60,5ee3dcd47bfde60b782a3f3d,,1,0,80,41,1,79
,,,,,,,,,,,,,,,,,,,,,,,,,,,,,,,,,,,return,6.00999999,,FALSE,,,,,,,146,guitarra,Catalan,Sounds/cat_guitarra.mp3,2020-06-13_22h26.53.156,TranslationElicitation_spa,3.2.4,Win32,60,5ee3dcd47bfde60b782a3f3d,6.00999999,1,0,80,41,1,79
,,,,,,,,,,,,,,,,,,,,,,,,,,,,,,,,,,,,,,,,,,,,,146,guitarra,Catalan,Sounds/cat_guitarra.mp3,2020-06-13_22h26.53.156,TranslationElicitation_spa,3.2.4,Win32,60,5ee3dcd47bfde60b782a3f3d,,1,0,80,41,1,79
,,,,,,,,,,,,,,,,,,,,,,,,,,,,,,,,,,,g,2.694999933,G,FALSE,,,,,,,106,aixeta,Catalan,Sounds/cat_aixeta.mp3,2020-06-13_22h26.53.156,TranslationElicitation_spa,3.2.4,Win32,60,5ee3dcd47bfde60b782a3f3d,,1,0,80,2,1,79
,,,,,,,,,,,,,,,,,,,,,,,,,,,,,,,,,,,a,2.878000021,GA,FALSE,,,,,,,106,aixeta,Catalan,Sounds/cat_aixeta.mp3,2020-06-13_22h26.53.156,TranslationElicitation_spa,3.2.4,Win32,60,5ee3dcd47bfde60b782a3f3d,,1,0,80,2,1,79
,,,,,,,,,,,,,,,,,,,,,,,,,,,,,,,,,,,l,3.31099987,GAL,FALSE,,,,,,,106,aixeta,Catalan,Sounds/cat_aixeta.mp3,2020-06-13_22h26.53.156,TranslationElicitation_spa,3.2.4,Win32,60,5ee3dcd47bfde60b782a3f3d,,1,0,80,2,1,79
,,,,,,,,,,,,,,,,,,,,,,,,,,,,,,,,,,,l,3.477999926,GALL,FALSE,,,,,,,106,aixeta,Catalan,Sounds/cat_aixeta.mp3,2020-06-13_22h26.53.156,TranslationElicitation_spa,3.2.4,Win32,60,5ee3dcd47bfde60b782a3f3d,,1,0,80,2,1,79
,,,,,,,,,,,,,,,,,,,,,,,,,,,,,,,,,,,e,3.530999899,GALLE,FALSE,,,,,,,106,aixeta,Catalan,Sounds/cat_aixeta.mp3,2020-06-13_22h26.53.156,TranslationElicitation_spa,3.2.4,Win32,60,5ee3dcd47bfde60b782a3f3d,,1,0,80,2,1,79
,,,,,,,,,,,,,,,,,,,,,,,,,,,,,,,,,,,t,3.859999895,GALLET,FALSE,,,,,,,106,aixeta,Catalan,Sounds/cat_aixeta.mp3,2020-06-13_22h26.53.156,TranslationElicitation_spa,3.2.4,Win32,60,5ee3dcd47bfde60b782a3f3d,,1,0,80,2,1,79
,,,,,,,,,,,,,,,,,,,,,,,,,,,,,,,,,,,a,5.275999784,GALLETA,FALSE,,,,,,,106,aixeta,Catalan,Sounds/cat_aixeta.mp3,2020-06-13_22h26.53.156,TranslationElicitation_spa,3.2.4,Win32,60,5ee3dcd47bfde60b782a3f3d,,1,0,80,2,1,79
,,,,,,,,,,,,,,,,,,,,,,,,,,,,,,,,,,,return,5.592000008,,FALSE,,,,,,,106,aixeta,Catalan,Sounds/cat_aixeta.mp3,2020-06-13_22h26.53.156,TranslationElicitation_spa,3.2.4,Win32,60,5ee3dcd47bfde60b782a3f3d,5.592000008,1,0,80,2,1,79
,,,,,,,,,,,,,,,,,,,,,,,,,,,,,,,,,,,,,,,,,,,,,106,aixeta,Catalan,Sounds/cat_aixeta.mp3,2020-06-13_22h26.53.156,TranslationElicitation_spa,3.2.4,Win32,60,5ee3dcd47bfde60b782a3f3d,,1,0,80,2,1,79
,,,,,,,,,,,,,,,,,,,,,,,,,,,,,,,,,,,o,4.996000051,O,FALSE,,,,,,,184,ull,Catalan,Sounds/cat_ull.mp3,2020-06-13_22h26.53.156,TranslationElicitation_spa,3.2.4,Win32,60,5ee3dcd47bfde60b782a3f3d,,1,0,80,75,1,79
,,,,,,,,,,,,,,,,,,,,,,,,,,,,,,,,,,,j,5.263000011,OJ,FALSE,,,,,,,184,ull,Catalan,Sounds/cat_ull.mp3,2020-06-13_22h26.53.156,TranslationElicitation_spa,3.2.4,Win32,60,5ee3dcd47bfde60b782a3f3d,,1,0,80,75,1,79
,,,,,,,,,,,,,,,,,,,,,,,,,,,,,,,,,,,o,5.628999949,OJO,FALSE,,,,,,,184,ull,Catalan,Sounds/cat_ull.mp3,2020-06-13_22h26.53.156,TranslationElicitation_spa,3.2.4,Win32,60,5ee3dcd47bfde60b782a3f3d,,1,0,80,75,1,79
,,,,,,,,,,,,,,,,,,,,,,,,,,,,,,,,,,,return,7.177999973,,FALSE,,,,,,,184,ull,Catalan,Sounds/cat_ull.mp3,2020-06-13_22h26.53.156,TranslationElicitation_spa,3.2.4,Win32,60,5ee3dcd47bfde60b782a3f3d,7.177999973,1,0,80,75,1,79
,,,,,,,,,,,,,,,,,,,,,,,,,,,,,,,,,,,,,,,,,,,,,184,ull,Catalan,Sounds/cat_ull.mp3,2020-06-13_22h26.53.156,TranslationElicitation_spa,3.2.4,Win32,60,5ee3dcd47bfde60b782a3f3d,,1,0,80,75,1,79
,,,,,,,,,,,,,,,,,,,,,,,,,,,,,,,,,,,n,6.878000021,N,FALSE,,,,,,,187,vaixell,Catalan,Sounds/cat_vaixell.mp3,2020-06-13_22h26.53.156,TranslationElicitation_spa,3.2.4,Win32,60,5ee3dcd47bfde60b782a3f3d,,1,0,80,77,1,79
,,,,,,,,,,,,,,,,,,,,,,,,,,,,,,,,,,,i,7.095000029,NI,FALSE,,,,,,,187,vaixell,Catalan,Sounds/cat_vaixell.mp3,2020-06-13_22h26.53.156,TranslationElicitation_spa,3.2.4,Win32,60,5ee3dcd47bfde60b782a3f3d,,1,0,80,77,1,79
,,,,,,,,,,,,,,,,,,,,,,,,,,,,,,,,,,,space,7.545000076,NI ,FALSE,,,,,,,187,vaixell,Catalan,Sounds/cat_vaixell.mp3,2020-06-13_22h26.53.156,TranslationElicitation_spa,3.2.4,Win32,60,5ee3dcd47bfde60b782a3f3d,,1,0,80,77,1,79
,,,,,,,,,,,,,,,,,,,,,,,,,,,,,,,,,,,i,7.727999926,NI I,FALSE,,,,,,,187,vaixell,Catalan,Sounds/cat_vaixell.mp3,2020-06-13_22h26.53.156,TranslationElicitation_spa,3.2.4,Win32,60,5ee3dcd47bfde60b782a3f3d,,1,0,80,77,1,79
,,,,,,,,,,,,,,,,,,,,,,,,,,,,,,,,,,,d,7.911000013,NI ID,FALSE,,,,,,,187,vaixell,Catalan,Sounds/cat_vaixell.mp3,2020-06-13_22h26.53.156,TranslationElicitation_spa,3.2.4,Win32,60,5ee3dcd47bfde60b782a3f3d,,1,0,80,77,1,79
,,,,,,,,,,,,,,,,,,,,,,,,,,,,,,,,,,,e,8.012000084,NI IDE,FALSE,,,,,,,187,vaixell,Catalan,Sounds/cat_vaixell.mp3,2020-06-13_22h26.53.156,TranslationElicitation_spa,3.2.4,Win32,60,5ee3dcd47bfde60b782a3f3d,,1,0,80,77,1,79
,,,,,,,,,,,,,,,,,,,,,,,,,,,,,,,,,,,a,8.210999966,NI IDEA,FALSE,,,,,,,187,vaixell,Catalan,Sounds/cat_vaixell.mp3,2020-06-13_22h26.53.156,TranslationElicitation_spa,3.2.4,Win32,60,5ee3dcd47bfde60b782a3f3d,,1,0,80,77,1,79
,,,,,,,,,,,,,,,,,,,,,,,,,,,,,,,,,,,return,8.694000006,,FALSE,,,,,,,187,vaixell,Catalan,Sounds/cat_vaixell.mp3,2020-06-13_22h26.53.156,TranslationElicitation_spa,3.2.4,Win32,60,5ee3dcd47bfde60b782a3f3d,8.694000006,1,0,80,77,1,79
,,,,,,,,,,,,,,,,,,,,,,,,,,,,,,,,,,,,,,,,,,,,,187,vaixell,Catalan,Sounds/cat_vaixell.mp3,2020-06-13_22h26.53.156,TranslationElicitation_spa,3.2.4,Win32,60,5ee3dcd47bfde60b782a3f3d,,1,0,80,77,1,79
,,,,,,,,,,,,,,,,,,,,,,,,,,,,,,,,,,,l,4.56400013,L,FALSE,,,,,,,150,lloro,Catalan,Sounds/cat_lloro.mp3,2020-06-13_22h26.53.156,TranslationElicitation_spa,3.2.4,Win32,60,5ee3dcd47bfde60b782a3f3d,,1,0,80,44,1,79
,,,,,,,,,,,,,,,,,,,,,,,,,,,,,,,,,,,o,4.847000122,LO,FALSE,,,,,,,150,lloro,Catalan,Sounds/cat_lloro.mp3,2020-06-13_22h26.53.156,TranslationElicitation_spa,3.2.4,Win32,60,5ee3dcd47bfde60b782a3f3d,,1,0,80,44,1,79
,,,,,,,,,,,,,,,,,,,,,,,,,,,,,,,,,,,r,5.029999971,LOR,FALSE,,,,,,,150,lloro,Catalan,Sounds/cat_lloro.mp3,2020-06-13_22h26.53.156,TranslationElicitation_spa,3.2.4,Win32,60,5ee3dcd47bfde60b782a3f3d,,1,0,80,44,1,79
,,,,,,,,,,,,,,,,,,,,,,,,,,,,,,,,,,,o,5.196000099,LORO,FALSE,,,,,,,150,lloro,Catalan,Sounds/cat_lloro.mp3,2020-06-13_22h26.53.156,TranslationElicitation_spa,3.2.4,Win32,60,5ee3dcd47bfde60b782a3f3d,,1,0,80,44,1,79
,,,,,,,,,,,,,,,,,,,,,,,,,,,,,,,,,,,return,6.578999996,,FALSE,,,,,,,150,lloro,Catalan,Sounds/cat_lloro.mp3,2020-06-13_22h26.53.156,TranslationElicitation_spa,3.2.4,Win32,60,5ee3dcd47bfde60b782a3f3d,6.578999996,1,0,80,44,1,79
,,,,,,,,,,,,,,,,,,,,,,,,,,,,,,,,,,,,,,,,,,,,,150,lloro,Catalan,Sounds/cat_lloro.mp3,2020-06-13_22h26.53.156,TranslationElicitation_spa,3.2.4,Win32,60,5ee3dcd47bfde60b782a3f3d,,1,0,80,44,1,79
,,,,,,,,,,,,,,,,,,,,,,,,,,,,,,,,,,,m,4.08100009,M,FALSE,,,,,,,152,ma,Catalan,Sounds/cat_ma.mp3,2020-06-13_22h26.53.156,TranslationElicitation_spa,3.2.4,Win32,60,5ee3dcd47bfde60b782a3f3d,,1,0,80,46,1,79
,,,,,,,,,,,,,,,,,,,,,,,,,,,,,,,,,,,a,4.31400013,MA,FALSE,,,,,,,152,ma,Catalan,Sounds/cat_ma.mp3,2020-06-13_22h26.53.156,TranslationElicitation_spa,3.2.4,Win32,60,5ee3dcd47bfde60b782a3f3d,,1,0,80,46,1,79
,,,,,,,,,,,,,,,,,,,,,,,,,,,,,,,,,,,r,4.714000225,MAR,FALSE,,,,,,,152,ma,Catalan,Sounds/cat_ma.mp3,2020-06-13_22h26.53.156,TranslationElicitation_spa,3.2.4,Win32,60,5ee3dcd47bfde60b782a3f3d,,1,0,80,46,1,79
,,,,,,,,,,,,,,,,,,,,,,,,,,,,,,,,,,,return,6.196000099,,FALSE,,,,,,,152,ma,Catalan,Sounds/cat_ma.mp3,2020-06-13_22h26.53.156,TranslationElicitation_spa,3.2.4,Win32,60,5ee3dcd47bfde60b782a3f3d,6.196000099,1,0,80,46,1,79
,,,,,,,,,,,,,,,,,,,,,,,,,,,,,,,,,,,,,,,,,,,,,152,ma,Catalan,Sounds/cat_ma.mp3,2020-06-13_22h26.53.156,TranslationElicitation_spa,3.2.4,Win32,60,5ee3dcd47bfde60b782a3f3d,,1,0,80,46,1,79
,,,,,,,,,,,,,,,,,,,,,,,,,,,,,,,,,,,c,1.398999929,C,FALSE,,,,,,,122,casa,Catalan,Sounds/cat_casa.mp3,2020-06-13_22h26.53.156,TranslationElicitation_spa,3.2.4,Win32,60,5ee3dcd47bfde60b782a3f3d,,1,0,80,17,1,79
,,,,,,,,,,,,,,,,,,,,,,,,,,,,,,,,,,,a,1.563999891,CA,FALSE,,,,,,,122,casa,Catalan,Sounds/cat_casa.mp3,2020-06-13_22h26.53.156,TranslationElicitation_spa,3.2.4,Win32,60,5ee3dcd47bfde60b782a3f3d,,1,0,80,17,1,79
,,,,,,,,,,,,,,,,,,,,,,,,,,,,,,,,,,,a,1.898000002,CAA,FALSE,,,,,,,122,casa,Catalan,Sounds/cat_casa.mp3,2020-06-13_22h26.53.156,TranslationElicitation_spa,3.2.4,Win32,60,5ee3dcd47bfde60b782a3f3d,,1,0,80,17,1,79
,,,,,,,,,,,,,,,,,,,,,,,,,,,,,,,,,,,backspace,2.563999891,C,TRUE,,,,,,,122,casa,Catalan,Sounds/cat_casa.mp3,2020-06-13_22h26.53.156,TranslationElicitation_spa,3.2.4,Win32,60,5ee3dcd47bfde60b782a3f3d,,1,0,80,17,1,79
,,,,,,,,,,,,,,,,,,,,,,,,,,,,,,,,,,,s,3.445999861,CS,TRUE,,,,,,,122,casa,Catalan,Sounds/cat_casa.mp3,2020-06-13_22h26.53.156,TranslationElicitation_spa,3.2.4,Win32,60,5ee3dcd47bfde60b782a3f3d,,1,0,80,17,1,79
,,,,,,,,,,,,,,,,,,,,,,,,,,,,,,,,,,,a,3.595999956,CSA,TRUE,,,,,,,122,casa,Catalan,Sounds/cat_casa.mp3,2020-06-13_22h26.53.156,TranslationElicitation_spa,3.2.4,Win32,60,5ee3dcd47bfde60b782a3f3d,,1,0,80,17,1,79
,,,,,,,,,,,,,,,,,,,,,,,,,,,,,,,,,,,return,3.995999813,,TRUE,,,,,,,122,casa,Catalan,Sounds/cat_casa.mp3,2020-06-13_22h26.53.156,TranslationElicitation_spa,3.2.4,Win32,60,5ee3dcd47bfde60b782a3f3d,3.995999813,1,0,80,17,1,79
,,,,,,,,,,,,,,,,,,,,,,,,,,,,,,,,,,,,,,,,,,,,,122,casa,Catalan,Sounds/cat_casa.mp3,2020-06-13_22h26.53.156,TranslationElicitation_spa,3.2.4,Win32,60,5ee3dcd47bfde60b782a3f3d,,1,0,80,17,1,79
,,,,,,,,,,,,,,,,,,,,,,,,,,,,,,,,,,,h,1.86500001,H,FALSE,,,,,,,135,formiga,Catalan,Sounds/cat_formiga.mp3,2020-06-13_22h26.53.156,TranslationElicitation_spa,3.2.4,Win32,60,5ee3dcd47bfde60b782a3f3d,,1,0,80,30,1,79
,,,,,,,,,,,,,,,,,,,,,,,,,,,,,,,,,,,o,1.997999907,HO,FALSE,,,,,,,135,formiga,Catalan,Sounds/cat_formiga.mp3,2020-06-13_22h26.53.156,TranslationElicitation_spa,3.2.4,Win32,60,5ee3dcd47bfde60b782a3f3d,,1,0,80,30,1,79
,,,,,,,,,,,,,,,,,,,,,,,,,,,,,,,,,,,r,2.164999962,HOR,FALSE,,,,,,,135,formiga,Catalan,Sounds/cat_formiga.mp3,2020-06-13_22h26.53.156,TranslationElicitation_spa,3.2.4,Win32,60,5ee3dcd47bfde60b782a3f3d,,1,0,80,30,1,79
,,,,,,,,,,,,,,,,,,,,,,,,,,,,,,,,,,,m,2.34800005,HORM,FALSE,,,,,,,135,formiga,Catalan,Sounds/cat_formiga.mp3,2020-06-13_22h26.53.156,TranslationElicitation_spa,3.2.4,Win32,60,5ee3dcd47bfde60b782a3f3d,,1,0,80,30,1,79
,,,,,,,,,,,,,,,,,,,,,,,,,,,,,,,,,,,i,2.547999859,HORMI,FALSE,,,,,,,135,formiga,Catalan,Sounds/cat_formiga.mp3,2020-06-13_22h26.53.156,TranslationElicitation_spa,3.2.4,Win32,60,5ee3dcd47bfde60b782a3f3d,,1,0,80,30,1,79
,,,,,,,,,,,,,,,,,,,,,,,,,,,,,,,,,,,n,2.796999931,HORMIN,FALSE,,,,,,,135,formiga,Catalan,Sounds/cat_formiga.mp3,2020-06-13_22h26.53.156,TranslationElicitation_spa,3.2.4,Win32,60,5ee3dcd47bfde60b782a3f3d,,1,0,80,30,1,79
,,,,,,,,,,,,,,,,,,,,,,,,,,,,,,,,,,,a,2.914999962,HORMINA,FALSE,,,,,,,135,formiga,Catalan,Sounds/cat_formiga.mp3,2020-06-13_22h26.53.156,TranslationElicitation_spa,3.2.4,Win32,60,5ee3dcd47bfde60b782a3f3d,,1,0,80,30,1,79
,,,,,,,,,,,,,,,,,,,,,,,,,,,,,,,,,,,backspace,3.832000017,HORMI,TRUE,,,,,,,135,formiga,Catalan,Sounds/cat_formiga.mp3,2020-06-13_22h26.53.156,TranslationElicitation_spa,3.2.4,Win32,60,5ee3dcd47bfde60b782a3f3d,,1,0,80,30,1,79
,,,,,,,,,,,,,,,,,,,,,,,,,,,,,,,,,,,backspace,4.013999939,HOR,TRUE,,,,,,,135,formiga,Catalan,Sounds/cat_formiga.mp3,2020-06-13_22h26.53.156,TranslationElicitation_spa,3.2.4,Win32,60,5ee3dcd47bfde60b782a3f3d,,1,0,80,30,1,79
,,,,,,,,,,,,,,,,,,,,,,,,,,,,,,,,,,,m,5.395999908,HORM,TRUE,,,,,,,135,formiga,Catalan,Sounds/cat_formiga.mp3,2020-06-13_22h26.53.156,TranslationElicitation_spa,3.2.4,Win32,60,5ee3dcd47bfde60b782a3f3d,,1,0,80,30,1,79
,,,,,,,,,,,,,,,,,,,,,,,,,,,,,,,,,,,i,5.629999876,HORMI,TRUE,,,,,,,135,formiga,Catalan,Sounds/cat_formiga.mp3,2020-06-13_22h26.53.156,TranslationElicitation_spa,3.2.4,Win32,60,5ee3dcd47bfde60b782a3f3d,,1,0,80,30,1,79
,,,,,,,,,,,,,,,,,,,,,,,,,,,,,,,,,,,g,5.863999844,HORMIG,TRUE,,,,,,,135,formiga,Catalan,Sounds/cat_formiga.mp3,2020-06-13_22h26.53.156,TranslationElicitation_spa,3.2.4,Win32,60,5ee3dcd47bfde60b782a3f3d,,1,0,80,30,1,79
,,,,,,,,,,,,,,,,,,,,,,,,,,,,,,,,,,,a,6.079999924,HORMIGA,TRUE,,,,,,,135,formiga,Catalan,Sounds/cat_formiga.mp3,2020-06-13_22h26.53.156,TranslationElicitation_spa,3.2.4,Win32,60,5ee3dcd47bfde60b782a3f3d,,1,0,80,30,1,79
,,,,,,,,,,,,,,,,,,,,,,,,,,,,,,,,,,,return,6.930999994,,TRUE,,,,,,,135,formiga,Catalan,Sounds/cat_formiga.mp3,2020-06-13_22h26.53.156,TranslationElicitation_spa,3.2.4,Win32,60,5ee3dcd47bfde60b782a3f3d,6.930999994,1,0,80,30,1,79
,,,,,,,,,,,,,,,,,,,,,,,,,,,,,,,,,,,,,,,,,,,,,135,formiga,Catalan,Sounds/cat_formiga.mp3,2020-06-13_22h26.53.156,TranslationElicitation_spa,3.2.4,Win32,60,5ee3dcd47bfde60b782a3f3d,,1,0,80,30,1,79
,,,,,,,,,,,,,,,,,,,,,,,,,,,,,,,,,,,b,4.126999855,B,FALSE,,,,,,,118,bou,Catalan,Sounds/cat_bou.mp3,2020-06-13_22h26.53.156,TranslationElicitation_spa,3.2.4,Win32,60,5ee3dcd47bfde60b782a3f3d,,1,0,80,13,1,79
,,,,,,,,,,,,,,,,,,,,,,,,,,,,,,,,,,,a,4.276000023,BA,FALSE,,,,,,,118,bou,Catalan,Sounds/cat_bou.mp3,2020-06-13_22h26.53.156,TranslationElicitation_spa,3.2.4,Win32,60,5ee3dcd47bfde60b782a3f3d,,1,0,80,13,1,79
,,,,,,,,,,,,,,,,,,,,,,,,,,,,,,,,,,,l,4.625999928,BAL,FALSE,,,,,,,118,bou,Catalan,Sounds/cat_bou.mp3,2020-06-13_22h26.53.156,TranslationElicitation_spa,3.2.4,Win32,60,5ee3dcd47bfde60b782a3f3d,,1,0,80,13,1,79
,,,,,,,,,,,,,,,,,,,,,,,,,,,,,,,,,,,apostrophe,5.191999912,BAL,FALSE,,,,,,,118,bou,Catalan,Sounds/cat_bou.mp3,2020-06-13_22h26.53.156,TranslationElicitation_spa,3.2.4,Win32,60,5ee3dcd47bfde60b782a3f3d,,1,0,80,13,1,79
,,,,,,,,,,,,,,,,,,,,,,,,,,,,,,,,,,,o,5.291999817,BALÓ,FALSE,,,,,,,118,bou,Catalan,Sounds/cat_bou.mp3,2020-06-13_22h26.53.156,TranslationElicitation_spa,3.2.4,Win32,60,5ee3dcd47bfde60b782a3f3d,,1,0,80,13,1,79
,,,,,,,,,,,,,,,,,,,,,,,,,,,,,,,,,,,n,5.575000048,BALÓN,FALSE,,,,,,,118,bou,Catalan,Sounds/cat_bou.mp3,2020-06-13_22h26.53.156,TranslationElicitation_spa,3.2.4,Win32,60,5ee3dcd47bfde60b782a3f3d,,1,0,80,13,1,79
,,,,,,,,,,,,,,,,,,,,,,,,,,,,,,,,,,,return,6.291999817,,FALSE,,,,,,,118,bou,Catalan,Sounds/cat_bou.mp3,2020-06-13_22h26.53.156,TranslationElicitation_spa,3.2.4,Win32,60,5ee3dcd47bfde60b782a3f3d,6.291999817,1,0,80,13,1,79
,,,,,,,,,,,,,,,,,,,,,,,,,,,,,,,,,,,,,,,,,,,,,118,bou,Catalan,Sounds/cat_bou.mp3,2020-06-13_22h26.53.156,TranslationElicitation_spa,3.2.4,Win32,60,5ee3dcd47bfde60b782a3f3d,,1,0,80,13,1,79
,,,,,,,,,,,,,,,,,,,,,,,,,,,,,,,,,,,n,5.847000122,N,FALSE,,,,,,,141,gerd,Catalan,Sounds/cat_gerd.mp3,2020-06-13_22h26.53.156,TranslationElicitation_spa,3.2.4,Win32,60,5ee3dcd47bfde60b782a3f3d,,1,0,80,36,1,79
,,,,,,,,,,,,,,,,,,,,,,,,,,,,,,,,,,,i,6.128000021,NI,FALSE,,,,,,,141,gerd,Catalan,Sounds/cat_gerd.mp3,2020-06-13_22h26.53.156,TranslationElicitation_spa,3.2.4,Win32,60,5ee3dcd47bfde60b782a3f3d,,1,0,80,36,1,79
,,,,,,,,,,,,,,,,,,,,,,,,,,,,,,,,,,,space,6.295000076,NI ,FALSE,,,,,,,141,gerd,Catalan,Sounds/cat_gerd.mp3,2020-06-13_22h26.53.156,TranslationElicitation_spa,3.2.4,Win32,60,5ee3dcd47bfde60b782a3f3d,,1,0,80,36,1,79
,,,,,,,,,,,,,,,,,,,,,,,,,,,,,,,,,,,i,6.460999966,NI I,FALSE,,,,,,,141,gerd,Catalan,Sounds/cat_gerd.mp3,2020-06-13_22h26.53.156,TranslationElicitation_spa,3.2.4,Win32,60,5ee3dcd47bfde60b782a3f3d,,1,0,80,36,1,79
,,,,,,,,,,,,,,,,,,,,,,,,,,,,,,,,,,,d,6.594000101,NI ID,FALSE,,,,,,,141,gerd,Catalan,Sounds/cat_gerd.mp3,2020-06-13_22h26.53.156,TranslationElicitation_spa,3.2.4,Win32,60,5ee3dcd47bfde60b782a3f3d,,1,0,80,36,1,79
,,,,,,,,,,,,,,,,,,,,,,,,,,,,,,,,,,,e,6.694000006,NI IDE,FALSE,,,,,,,141,gerd,Catalan,Sounds/cat_gerd.mp3,2020-06-13_22h26.53.156,TranslationElicitation_spa,3.2.4,Win32,60,5ee3dcd47bfde60b782a3f3d,,1,0,80,36,1,79
,,,,,,,,,,,,,,,,,,,,,,,,,,,,,,,,,,,a,6.960999966,NI IDEA,FALSE,,,,,,,141,gerd,Catalan,Sounds/cat_gerd.mp3,2020-06-13_22h26.53.156,TranslationElicitation_spa,3.2.4,Win32,60,5ee3dcd47bfde60b782a3f3d,,1,0,80,36,1,79
,,,,,,,,,,,,,,,,,,,,,,,,,,,,,,,,,,,return,7.295000076,,FALSE,,,,,,,141,gerd,Catalan,Sounds/cat_gerd.mp3,2020-06-13_22h26.53.156,TranslationElicitation_spa,3.2.4,Win32,60,5ee3dcd47bfde60b782a3f3d,7.29399991,1,0,80,36,1,79
,,,,,,,,,,,,,,,,,,,,,,,,,,,,,,,,,,,,,,,,,,,,,141,gerd,Catalan,Sounds/cat_gerd.mp3,2020-06-13_22h26.53.156,TranslationElicitation_spa,3.2.4,Win32,60,5ee3dcd47bfde60b782a3f3d,,1,0,80,36,1,79
,,,,,,,,,,,,,,,,,,,,,,,,,,,,,,,,,,,n,9.510999918,N,FALSE,,,,,,,137,fulla,Catalan,Sounds/cat_fulla.mp3,2020-06-13_22h26.53.156,TranslationElicitation_spa,3.2.4,Win32,60,5ee3dcd47bfde60b782a3f3d,,1,0,80,32,1,79
,,,,,,,,,,,,,,,,,,,,,,,,,,,,,,,,,,,i,9.661000013,NI,FALSE,,,,,,,137,fulla,Catalan,Sounds/cat_fulla.mp3,2020-06-13_22h26.53.156,TranslationElicitation_spa,3.2.4,Win32,60,5ee3dcd47bfde60b782a3f3d,,1,0,80,32,1,79
,,,,,,,,,,,,,,,,,,,,,,,,,,,,,,,,,,,space,9.927000046,NI ,FALSE,,,,,,,137,fulla,Catalan,Sounds/cat_fulla.mp3,2020-06-13_22h26.53.156,TranslationElicitation_spa,3.2.4,Win32,60,5ee3dcd47bfde60b782a3f3d,,1,0,80,32,1,79
,,,,,,,,,,,,,,,,,,,,,,,,,,,,,,,,,,,o,10.77600002,NI O,FALSE,,,,,,,137,fulla,Catalan,Sounds/cat_fulla.mp3,2020-06-13_22h26.53.156,TranslationElicitation_spa,3.2.4,Win32,60,5ee3dcd47bfde60b782a3f3d,,1,0,80,32,1,79
,,,,,,,,,,,,,,,,,,,,,,,,,,,,,,,,,,,backspace,11.64300013,NI,TRUE,,,,,,,137,fulla,Catalan,Sounds/cat_fulla.mp3,2020-06-13_22h26.53.156,TranslationElicitation_spa,3.2.4,Win32,60,5ee3dcd47bfde60b782a3f3d,,1,0,80,32,1,79
,,,,,,,,,,,,,,,,,,,,,,,,,,,,,,,,,,,backspace,11.89300013,,TRUE,,,,,,,137,fulla,Catalan,Sounds/cat_fulla.mp3,2020-06-13_22h26.53.156,TranslationElicitation_spa,3.2.4,Win32,60,5ee3dcd47bfde60b782a3f3d,,1,0,80,32,1,79
,,,,,,,,,,,,,,,,,,,,,,,,,,,,,,,,,,,backspace,12.04299998,,TRUE,,,,,,,137,fulla,Catalan,Sounds/cat_fulla.mp3,2020-06-13_22h26.53.156,TranslationElicitation_spa,3.2.4,Win32,60,5ee3dcd47bfde60b782a3f3d,,1,0,80,32,1,79
,,,,,,,,,,,,,,,,,,,,,,,,,,,,,,,,,,,backspace,12.32599998,,TRUE,,,,,,,137,fulla,Catalan,Sounds/cat_fulla.mp3,2020-06-13_22h26.53.156,TranslationElicitation_spa,3.2.4,Win32,60,5ee3dcd47bfde60b782a3f3d,,1,0,80,32,1,79
,,,,,,,,,,,,,,,,,,,,,,,,,,,,,,,,,,,f,17.9230001,F,TRUE,,,,,,,137,fulla,Catalan,Sounds/cat_fulla.mp3,2020-06-13_22h26.53.156,TranslationElicitation_spa,3.2.4,Win32,60,5ee3dcd47bfde60b782a3f3d,,1,0,80,32,1,79
,,,,,,,,,,,,,,,,,,,,,,,,,,,,,,,,,,,u,18.07299995,FU,TRUE,,,,,,,137,fulla,Catalan,Sounds/cat_fulla.mp3,2020-06-13_22h26.53.156,TranslationElicitation_spa,3.2.4,Win32,60,5ee3dcd47bfde60b782a3f3d,,1,0,80,32,1,79
,,,,,,,,,,,,,,,,,,,,,,,,,,,,,,,,,,,l,18.94000006,FUL,TRUE,,,,,,,137,fulla,Catalan,Sounds/cat_fulla.mp3,2020-06-13_22h26.53.156,TranslationElicitation_spa,3.2.4,Win32,60,5ee3dcd47bfde60b782a3f3d,,1,0,80,32,1,79
,,,,,,,,,,,,,,,,,,,,,,,,,,,,,,,,,,,j,21.52200007,FULJ,TRUE,,,,,,,137,fulla,Catalan,Sounds/cat_fulla.mp3,2020-06-13_22h26.53.156,TranslationElicitation_spa,3.2.4,Win32,60,5ee3dcd47bfde60b782a3f3d,,1,0,80,32,1,79
,,,,,,,,,,,,,,,,,,,,,,,,,,,,,,,,,,,a,22.00500011,FULJA,TRUE,,,,,,,137,fulla,Catalan,Sounds/cat_fulla.mp3,2020-06-13_22h26.53.156,TranslationElicitation_spa,3.2.4,Win32,60,5ee3dcd47bfde60b782a3f3d,,1,0,80,32,1,79
,,,,,,,,,,,,,,,,,,,,,,,,,,,,,,,,,,,return,22.52200007,,TRUE,,,,,,,137,fulla,Catalan,Sounds/cat_fulla.mp3,2020-06-13_22h26.53.156,TranslationElicitation_spa,3.2.4,Win32,60,5ee3dcd47bfde60b782a3f3d,22.52200007,1,0,80,32,1,79
,,,,,,,,,,,,,,,,,,,,,,,,,,,,,,,,,,,,,,,,,,,,,137,fulla,Catalan,Sounds/cat_fulla.mp3,2020-06-13_22h26.53.156,TranslationElicitation_spa,3.2.4,Win32,60,5ee3dcd47bfde60b782a3f3d,,1,0,80,32,1,79
,,,,,,,,,,,,,,,,,,,,,,,,,,,,,,,,,,,p,2.045000076,P,FALSE,,,,,,,169,plat,Catalan,Sounds/cat_plat.mp3,2020-06-13_22h26.53.156,TranslationElicitation_spa,3.2.4,Win32,60,5ee3dcd47bfde60b782a3f3d,,1,0,80,61,1,79
,,,,,,,,,,,,,,,,,,,,,,,,,,,,,,,,,,,l,2.262000084,PL,FALSE,,,,,,,169,plat,Catalan,Sounds/cat_plat.mp3,2020-06-13_22h26.53.156,TranslationElicitation_spa,3.2.4,Win32,60,5ee3dcd47bfde60b782a3f3d,,1,0,80,61,1,79
,,,,,,,,,,,,,,,,,,,,,,,,,,,,,,,,,,,a,2.378000021,PLA,FALSE,,,,,,,169,plat,Catalan,Sounds/cat_plat.mp3,2020-06-13_22h26.53.156,TranslationElicitation_spa,3.2.4,Win32,60,5ee3dcd47bfde60b782a3f3d,,1,0,80,61,1,79
,,,,,,,,,,,,,,,,,,,,,,,,,,,,,,,,,,,t,2.677999973,PLAT,FALSE,,,,,,,169,plat,Catalan,Sounds/cat_plat.mp3,2020-06-13_22h26.53.156,TranslationElicitation_spa,3.2.4,Win32,60,5ee3dcd47bfde60b782a3f3d,,1,0,80,61,1,79
,,,,,,,,,,,,,,,,,,,,,,,,,,,,,,,,,,,o,2.826999903,PLATO,FALSE,,,,,,,169,plat,Catalan,Sounds/cat_plat.mp3,2020-06-13_22h26.53.156,TranslationElicitation_spa,3.2.4,Win32,60,5ee3dcd47bfde60b782a3f3d,,1,0,80,61,1,79
,,,,,,,,,,,,,,,,,,,,,,,,,,,,,,,,,,,return,3.177000046,,FALSE,,,,,,,169,plat,Catalan,Sounds/cat_plat.mp3,2020-06-13_22h26.53.156,TranslationElicitation_spa,3.2.4,Win32,60,5ee3dcd47bfde60b782a3f3d,3.177000046,1,0,80,61,1,79
,,,,,,,,,,,,,,,,,,,,,,,,,,,,,,,,,,,,,,,,,,,,,169,plat,Catalan,Sounds/cat_plat.mp3,2020-06-13_22h26.53.156,TranslationElicitation_spa,3.2.4,Win32,60,5ee3dcd47bfde60b782a3f3d,,1,0,80,61,1,79
,,,,,,,,,,,,,,,,,,,,,,,,,,,,,,,,,,,a,1.36500001,A,FALSE,,,,,,,108,ampolla,Catalan,Sounds/cat_ampolla.mp3,2020-06-13_22h26.53.156,TranslationElicitation_spa,3.2.4,Win32,60,5ee3dcd47bfde60b782a3f3d,,1,0,80,4,1,79
,,,,,,,,,,,,,,,,,,,,,,,,,,,,,,,,,,,m,1.497999907,AM,FALSE,,,,,,,108,ampolla,Catalan,Sounds/cat_ampolla.mp3,2020-06-13_22h26.53.156,TranslationElicitation_spa,3.2.4,Win32,60,5ee3dcd47bfde60b782a3f3d,,1,0,80,4,1,79
,,,,,,,,,,,,,,,,,,,,,,,,,,,,,,,,,,,p,1.763999939,AMP,FALSE,,,,,,,108,ampolla,Catalan,Sounds/cat_ampolla.mp3,2020-06-13_22h26.53.156,TranslationElicitation_spa,3.2.4,Win32,60,5ee3dcd47bfde60b782a3f3d,,1,0,80,4,1,79
,,,,,,,,,,,,,,,,,,,,,,,,,,,,,,,,,,,o,1.993999958,AMPO,FALSE,,,,,,,108,ampolla,Catalan,Sounds/cat_ampolla.mp3,2020-06-13_22h26.53.156,TranslationElicitation_spa,3.2.4,Win32,60,5ee3dcd47bfde60b782a3f3d,,1,0,80,4,1,79
,,,,,,,,,,,,,,,,,,,,,,,,,,,,,,,,,,,l,2.164000034,AMPOL,FALSE,,,,,,,108,ampolla,Catalan,Sounds/cat_ampolla.mp3,2020-06-13_22h26.53.156,TranslationElicitation_spa,3.2.4,Win32,60,5ee3dcd47bfde60b782a3f3d,,1,0,80,4,1,79
,,,,,,,,,,,,,,,,,,,,,,,,,,,,,,,,,,,l,2.296999931,AMPOLL,FALSE,,,,,,,108,ampolla,Catalan,Sounds/cat_ampolla.mp3,2020-06-13_22h26.53.156,TranslationElicitation_spa,3.2.4,Win32,60,5ee3dcd47bfde60b782a3f3d,,1,0,80,4,1,79
,,,,,,,,,,,,,,,,,,,,,,,,,,,,,,,,,,,a,2.381000042,AMPOLLA,FALSE,,,,,,,108,ampolla,Catalan,Sounds/cat_ampolla.mp3,2020-06-13_22h26.53.156,TranslationElicitation_spa,3.2.4,Win32,60,5ee3dcd47bfde60b782a3f3d,,1,0,80,4,1,79
,,,,,,,,,,,,,,,,,,,,,,,,,,,,,,,,,,,return,2.63499999,,FALSE,,,,,,,108,ampolla,Catalan,Sounds/cat_ampolla.mp3,2020-06-13_22h26.53.156,TranslationElicitation_spa,3.2.4,Win32,60,5ee3dcd47bfde60b782a3f3d,2.63499999,1,0,80,4,1,79
,,,,,,,,,,,,,,,,,,,,,,,,,,,,,,,,,,,,,,,,,,,,,108,ampolla,Catalan,Sounds/cat_ampolla.mp3,2020-06-13_22h26.53.156,TranslationElicitation_spa,3.2.4,Win32,60,5ee3dcd47bfde60b782a3f3d,,1,0,80,4,1,79
,,,,,,,,,,,,,,,,,,,,,,,,,,,,,,,,,,,m,3.246999979,M,FALSE,,,,,,,157,mussol,Catalan,Sounds/cat_mussol.mp3,2020-06-13_22h26.53.156,TranslationElicitation_spa,3.2.4,Win32,60,5ee3dcd47bfde60b782a3f3d,,1,0,80,51,1,79
,,,,,,,,,,,,,,,,,,,,,,,,,,,,,,,,,,,u,3.463999987,MU,FALSE,,,,,,,157,mussol,Catalan,Sounds/cat_mussol.mp3,2020-06-13_22h26.53.156,TranslationElicitation_spa,3.2.4,Win32,60,5ee3dcd47bfde60b782a3f3d,,1,0,80,51,1,79
,,,,,,,,,,,,,,,,,,,,,,,,,,,,,,,,,,,e,3.546999931,MUE,FALSE,,,,,,,157,mussol,Catalan,Sounds/cat_mussol.mp3,2020-06-13_22h26.53.156,TranslationElicitation_spa,3.2.4,Win32,60,5ee3dcd47bfde60b782a3f3d,,1,0,80,51,1,79
,,,,,,,,,,,,,,,,,,,,,,,,,,,,,,,,,,,backspace,4.046999931,M,TRUE,,,,,,,157,mussol,Catalan,Sounds/cat_mussol.mp3,2020-06-13_22h26.53.156,TranslationElicitation_spa,3.2.4,Win32,60,5ee3dcd47bfde60b782a3f3d,,1,0,80,51,1,79
,,,,,,,,,,,,,,,,,,,,,,,,,,,,,,,,,,,s,4.330999851,MS,TRUE,,,,,,,157,mussol,Catalan,Sounds/cat_mussol.mp3,2020-06-13_22h26.53.156,TranslationElicitation_spa,3.2.4,Win32,60,5ee3dcd47bfde60b782a3f3d,,1,0,80,51,1,79
,,,,,,,,,,,,,,,,,,,,,,,,,,,,,,,,,,,e,4.579999924,MSE,TRUE,,,,,,,157,mussol,Catalan,Sounds/cat_mussol.mp3,2020-06-13_22h26.53.156,TranslationElicitation_spa,3.2.4,Win32,60,5ee3dcd47bfde60b782a3f3d,,1,0,80,51,1,79
,,,,,,,,,,,,,,,,,,,,,,,,,,,,,,,,,,,backspace,4.861999989,M,TRUE,,,,,,,157,mussol,Catalan,Sounds/cat_mussol.mp3,2020-06-13_22h26.53.156,TranslationElicitation_spa,3.2.4,Win32,60,5ee3dcd47bfde60b782a3f3d,,1,0,80,51,1,79
,,,,,,,,,,,,,,,,,,,,,,,,,,,,,,,,,,,backspace,5.078999996,,TRUE,,,,,,,157,mussol,Catalan,Sounds/cat_mussol.mp3,2020-06-13_22h26.53.156,TranslationElicitation_spa,3.2.4,Win32,60,5ee3dcd47bfde60b782a3f3d,,1,0,80,51,1,79
,,,,,,,,,,,,,,,,,,,,,,,,,,,,,,,,,,,m,5.894999981,M,TRUE,,,,,,,157,mussol,Catalan,Sounds/cat_mussol.mp3,2020-06-13_22h26.53.156,TranslationElicitation_spa,3.2.4,Win32,60,5ee3dcd47bfde60b782a3f3d,,1,0,80,51,1,79
,,,,,,,,,,,,,,,,,,,,,,,,,,,,,,,,,,,u,6.127999783,MU,TRUE,,,,,,,157,mussol,Catalan,Sounds/cat_mussol.mp3,2020-06-13_22h26.53.156,TranslationElicitation_spa,3.2.4,Win32,60,5ee3dcd47bfde60b782a3f3d,,1,0,80,51,1,79
,,,,,,,,,,,,,,,,,,,,,,,,,,,,,,,,,,,s,6.227999926,MUS,TRUE,,,,,,,157,mussol,Catalan,Sounds/cat_mussol.mp3,2020-06-13_22h26.53.156,TranslationElicitation_spa,3.2.4,Win32,60,5ee3dcd47bfde60b782a3f3d,,1,0,80,51,1,79
,,,,,,,,,,,,,,,,,,,,,,,,,,,,,,,,,,,e,6.427999973,MUSE,TRUE,,,,,,,157,mussol,Catalan,Sounds/cat_mussol.mp3,2020-06-13_22h26.53.156,TranslationElicitation_spa,3.2.4,Win32,60,5ee3dcd47bfde60b782a3f3d,,1,0,80,51,1,79
,,,,,,,,,,,,,,,,,,,,,,,,,,,,,,,,,,,o,6.727999926,MUSEO,TRUE,,,,,,,157,mussol,Catalan,Sounds/cat_mussol.mp3,2020-06-13_22h26.53.156,TranslationElicitation_spa,3.2.4,Win32,60,5ee3dcd47bfde60b782a3f3d,,1,0,80,51,1,79
,,,,,,,,,,,,,,,,,,,,,,,,,,,,,,,,,,,return,7.243999958,,TRUE,,,,,,,157,mussol,Catalan,Sounds/cat_mussol.mp3,2020-06-13_22h26.53.156,TranslationElicitation_spa,3.2.4,Win32,60,5ee3dcd47bfde60b782a3f3d,7.243999958,1,0,80,51,1,79
,,,,,,,,,,,,,,,,,,,,,,,,,,,,,,,,,,,,,,,,,,,,,157,mussol,Catalan,Sounds/cat_mussol.mp3,2020-06-13_22h26.53.156,TranslationElicitation_spa,3.2.4,Win32,60,5ee3dcd47bfde60b782a3f3d,,1,0,80,51,1,79
,,,,,,,,,,,,,,,,,,,,,,,,,,,,,,,,,,,d,2.497999907,D,FALSE,,,,,,,129,dit,Catalan,Sounds/cat_dit.mp3,2020-06-13_22h26.53.156,TranslationElicitation_spa,3.2.4,Win32,60,5ee3dcd47bfde60b782a3f3d,,1,0,80,24,1,79
,,,,,,,,,,,,,,,,,,,,,,,,,,,,,,,,,,,e,2.614000082,DE,FALSE,,,,,,,129,dit,Catalan,Sounds/cat_dit.mp3,2020-06-13_22h26.53.156,TranslationElicitation_spa,3.2.4,Win32,60,5ee3dcd47bfde60b782a3f3d,,1,0,80,24,1,79
,,,,,,,,,,,,,,,,,,,,,,,,,,,,,,,,,,,d,2.83100009,DED,FALSE,,,,,,,129,dit,Catalan,Sounds/cat_dit.mp3,2020-06-13_22h26.53.156,TranslationElicitation_spa,3.2.4,Win32,60,5ee3dcd47bfde60b782a3f3d,,1,0,80,24,1,79
,,,,,,,,,,,,,,,,,,,,,,,,,,,,,,,,,,,o,2.996999979,DEDO,FALSE,,,,,,,129,dit,Catalan,Sounds/cat_dit.mp3,2020-06-13_22h26.53.156,TranslationElicitation_spa,3.2.4,Win32,60,5ee3dcd47bfde60b782a3f3d,,1,0,80,24,1,79
,,,,,,,,,,,,,,,,,,,,,,,,,,,,,,,,,,,return,3.364000082,,FALSE,,,,,,,129,dit,Catalan,Sounds/cat_dit.mp3,2020-06-13_22h26.53.156,TranslationElicitation_spa,3.2.4,Win32,60,5ee3dcd47bfde60b782a3f3d,3.364000082,1,0,80,24,1,79
,,,,,,,,,,,,,,,,,,,,,,,,,,,,,,,,,,,,,,,,,,,,,129,dit,Catalan,Sounds/cat_dit.mp3,2020-06-13_22h26.53.156,TranslationElicitation_spa,3.2.4,Win32,60,5ee3dcd47bfde60b782a3f3d,,1,0,80,24,1,79
,,,,,,,,,,,,,,,,,,,,,,,,,,,,,,,,,,,b,2.112999916,B,FALSE,,,,,,,117,boto,Catalan,Sounds/cat_boto.mp3,2020-06-13_22h26.53.156,TranslationElicitation_spa,3.2.4,Win32,60,5ee3dcd47bfde60b782a3f3d,,1,0,80,12,1,79
,,,,,,,,,,,,,,,,,,,,,,,,,,,,,,,,,,,o,2.263000011,BO,FALSE,,,,,,,117,boto,Catalan,Sounds/cat_boto.mp3,2020-06-13_22h26.53.156,TranslationElicitation_spa,3.2.4,Win32,60,5ee3dcd47bfde60b782a3f3d,,1,0,80,12,1,79
,,,,,,,,,,,,,,,,,,,,,,,,,,,,,,,,,,,t,3.246999979,BOT,FALSE,,,,,,,117,boto,Catalan,Sounds/cat_boto.mp3,2020-06-13_22h26.53.156,TranslationElicitation_spa,3.2.4,Win32,60,5ee3dcd47bfde60b782a3f3d,,1,0,80,12,1,79
,,,,,,,,,,,,,,,,,,,,,,,,,,,,,,,,,,,apostrophe,4.144999981,BOT,FALSE,,,,,,,117,boto,Catalan,Sounds/cat_boto.mp3,2020-06-13_22h26.53.156,TranslationElicitation_spa,3.2.4,Win32,60,5ee3dcd47bfde60b782a3f3d,,1,0,80,12,1,79
,,,,,,,,,,,,,,,,,,,,,,,,,,,,,,,,,,,o,4.244999886,BOTÓ,FALSE,,,,,,,117,boto,Catalan,Sounds/cat_boto.mp3,2020-06-13_22h26.53.156,TranslationElicitation_spa,3.2.4,Win32,60,5ee3dcd47bfde60b782a3f3d,,1,0,80,12,1,79
,,,,,,,,,,,,,,,,,,,,,,,,,,,,,,,,,,,n,4.527999878,BOTÓN,FALSE,,,,,,,117,boto,Catalan,Sounds/cat_boto.mp3,2020-06-13_22h26.53.156,TranslationElicitation_spa,3.2.4,Win32,60,5ee3dcd47bfde60b782a3f3d,,1,0,80,12,1,79
,,,,,,,,,,,,,,,,,,,,,,,,,,,,,,,,,,,return,4.944000006,,FALSE,,,,,,,117,boto,Catalan,Sounds/cat_boto.mp3,2020-06-13_22h26.53.156,TranslationElicitation_spa,3.2.4,Win32,60,5ee3dcd47bfde60b782a3f3d,4.944000006,1,0,80,12,1,79
,,,,,,,,,,,,,,,,,,,,,,,,,,,,,,,,,,,,,,,,,,,,,117,boto,Catalan,Sounds/cat_boto.mp3,2020-06-13_22h26.53.156,TranslationElicitation_spa,3.2.4,Win32,60,5ee3dcd47bfde60b782a3f3d,,1,0,80,12,1,79
,,,,,,,,,,,,,,,,,,,,,,,,,,,,,,,,,,,g,1.61500001,G,FALSE,,,,,,,144,gorra,Catalan,Sounds/cat_gorra.mp3,2020-06-13_22h26.53.156,TranslationElicitation_spa,3.2.4,Win32,60,5ee3dcd47bfde60b782a3f3d,,1,0,80,39,1,79
,,,,,,,,,,,,,,,,,,,,,,,,,,,,,,,,,,,o,2.047999859,GO,FALSE,,,,,,,144,gorra,Catalan,Sounds/cat_gorra.mp3,2020-06-13_22h26.53.156,TranslationElicitation_spa,3.2.4,Win32,60,5ee3dcd47bfde60b782a3f3d,,1,0,80,39,1,79
,,,,,,,,,,,,,,,,,,,,,,,,,,,,,,,,,,,r,2.227999926,GOR,FALSE,,,,,,,144,gorra,Catalan,Sounds/cat_gorra.mp3,2020-06-13_22h26.53.156,TranslationElicitation_spa,3.2.4,Win32,60,5ee3dcd47bfde60b782a3f3d,,1,0,80,39,1,79
,,,,,,,,,,,,,,,,,,,,,,,,,,,,,,,,,,,r,2.414999962,GORR,FALSE,,,,,,,144,gorra,Catalan,Sounds/cat_gorra.mp3,2020-06-13_22h26.53.156,TranslationElicitation_spa,3.2.4,Win32,60,5ee3dcd47bfde60b782a3f3d,,1,0,80,39,1,79
,,,,,,,,,,,,,,,,,,,,,,,,,,,,,,,,,,,a,2.648000002,GORRA,FALSE,,,,,,,144,gorra,Catalan,Sounds/cat_gorra.mp3,2020-06-13_22h26.53.156,TranslationElicitation_spa,3.2.4,Win32,60,5ee3dcd47bfde60b782a3f3d,,1,0,80,39,1,79
,,,,,,,,,,,,,,,,,,,,,,,,,,,,,,,,,,,return,3.080999851,,FALSE,,,,,,,144,gorra,Catalan,Sounds/cat_gorra.mp3,2020-06-13_22h26.53.156,TranslationElicitation_spa,3.2.4,Win32,60,5ee3dcd47bfde60b782a3f3d,3.080999851,1,0,80,39,1,79
,,,,,,,,,,,,,,,,,,,,,,,,,,,,,,,,,,,,,,,,,,,,,144,gorra,Catalan,Sounds/cat_gorra.mp3,2020-06-13_22h26.53.156,TranslationElicitation_spa,3.2.4,Win32,60,5ee3dcd47bfde60b782a3f3d,,1,0,80,39,1,79
,,,,,,,,,,,,,,,,,,,,,,,,,,,,,,,,,,,p,1.812999964,P,FALSE,,,,,,,170,ploma,Catalan,Sounds/cat_ploma.mp3,2020-06-13_22h26.53.156,TranslationElicitation_spa,3.2.4,Win32,60,5ee3dcd47bfde60b782a3f3d,,1,0,80,62,1,79
,,,,,,,,,,,,,,,,,,,,,,,,,,,,,,,,,,,l,2.029999971,PL,FALSE,,,,,,,170,ploma,Catalan,Sounds/cat_ploma.mp3,2020-06-13_22h26.53.156,TranslationElicitation_spa,3.2.4,Win32,60,5ee3dcd47bfde60b782a3f3d,,1,0,80,62,1,79
,,,,,,,,,,,,,,,,,,,,,,,,,,,,,,,,,,,u,2.279999971,PLU,FALSE,,,,,,,170,ploma,Catalan,Sounds/cat_ploma.mp3,2020-06-13_22h26.53.156,TranslationElicitation_spa,3.2.4,Win32,60,5ee3dcd47bfde60b782a3f3d,,1,0,80,62,1,79
,,,,,,,,,,,,,,,,,,,,,,,,,,,,,,,,,,,m,2.513000011,PLUM,FALSE,,,,,,,170,ploma,Catalan,Sounds/cat_ploma.mp3,2020-06-13_22h26.53.156,TranslationElicitation_spa,3.2.4,Win32,60,5ee3dcd47bfde60b782a3f3d,,1,0,80,62,1,79
,,,,,,,,,,,,,,,,,,,,,,,,,,,,,,,,,,,a,2.630000114,PLUMA,FALSE,,,,,,,170,ploma,Catalan,Sounds/cat_ploma.mp3,2020-06-13_22h26.53.156,TranslationElicitation_spa,3.2.4,Win32,60,5ee3dcd47bfde60b782a3f3d,,1,0,80,62,1,79
,,,,,,,,,,,,,,,,,,,,,,,,,,,,,,,,,,,return,2.934999943,,FALSE,,,,,,,170,ploma,Catalan,Sounds/cat_ploma.mp3,2020-06-13_22h26.53.156,TranslationElicitation_spa,3.2.4,Win32,60,5ee3dcd47bfde60b782a3f3d,2.934000015,1,0,80,62,1,79
,,,,,,,,,,,,,,,,,,,,,,,,,,,,,,,,,,,,,,,,,,,,,170,ploma,Catalan,Sounds/cat_ploma.mp3,2020-06-13_22h26.53.156,TranslationElicitation_spa,3.2.4,Win32,60,5ee3dcd47bfde60b782a3f3d,,1,0,80,62,1,79
,,,,,,,,,,,,,,,,,,,,,,,,,,,,,,,,,,,p,1.58100009,P,FALSE,,,,,,,168,planta,Catalan,Sounds/cat_planta.mp3,2020-06-13_22h26.53.156,TranslationElicitation_spa,3.2.4,Win32,60,5ee3dcd47bfde60b782a3f3d,,1,0,80,60,1,79
,,,,,,,,,,,,,,,,,,,,,,,,,,,,,,,,,,,l,1.781000137,PL,FALSE,,,,,,,168,planta,Catalan,Sounds/cat_planta.mp3,2020-06-13_22h26.53.156,TranslationElicitation_spa,3.2.4,Win32,60,5ee3dcd47bfde60b782a3f3d,,1,0,80,60,1,79
,,,,,,,,,,,,,,,,,,,,,,,,,,,,,,,,,,,a,1.947000027,PLA,FALSE,,,,,,,168,planta,Catalan,Sounds/cat_planta.mp3,2020-06-13_22h26.53.156,TranslationElicitation_spa,3.2.4,Win32,60,5ee3dcd47bfde60b782a3f3d,,1,0,80,60,1,79
,,,,,,,,,,,,,,,,,,,,,,,,,,,,,,,,,,,n,2.046999931,PLAN,FALSE,,,,,,,168,planta,Catalan,Sounds/cat_planta.mp3,2020-06-13_22h26.53.156,TranslationElicitation_spa,3.2.4,Win32,60,5ee3dcd47bfde60b782a3f3d,,1,0,80,60,1,79
,,,,,,,,,,,,,,,,,,,,,,,,,,,,,,,,,,,t,3.447000027,PLANT,FALSE,,,,,,,168,planta,Catalan,Sounds/cat_planta.mp3,2020-06-13_22h26.53.156,TranslationElicitation_spa,3.2.4,Win32,60,5ee3dcd47bfde60b782a3f3d,,1,0,80,60,1,79
,,,,,,,,,,,,,,,,,,,,,,,,,,,,,,,,,,,a,3.76699996,PLANTA,FALSE,,,,,,,168,planta,Catalan,Sounds/cat_planta.mp3,2020-06-13_22h26.53.156,TranslationElicitation_spa,3.2.4,Win32,60,5ee3dcd47bfde60b782a3f3d,,1,0,80,60,1,79
,,,,,,,,,,,,,,,,,,,,,,,,,,,,,,,,,,,return,4.062999964,,FALSE,,,,,,,168,planta,Catalan,Sounds/cat_planta.mp3,2020-06-13_22h26.53.156,TranslationElicitation_spa,3.2.4,Win32,60,5ee3dcd47bfde60b782a3f3d,4.062999964,1,0,80,60,1,79
,,,,,,,,,,,,,,,,,,,,,,,,,,,,,,,,,,,,,,,,,,,,,168,planta,Catalan,Sounds/cat_planta.mp3,2020-06-13_22h26.53.156,TranslationElicitation_spa,3.2.4,Win32,60,5ee3dcd47bfde60b782a3f3d,,1,0,80,60,1,79
,,,,,,,,,,,,,,,,,,,,,,,,,,,,,,,,,,,t,2.798999786,T,FALSE,,,,,,,183,tren,Catalan,Sounds/cat_tren.mp3,2020-06-13_22h26.53.156,TranslationElicitation_spa,3.2.4,Win32,60,5ee3dcd47bfde60b782a3f3d,,1,0,80,74,1,79
,,,,,,,,,,,,,,,,,,,,,,,,,,,,,,,,,,,r,2.947999954,TR,FALSE,,,,,,,183,tren,Catalan,Sounds/cat_tren.mp3,2020-06-13_22h26.53.156,TranslationElicitation_spa,3.2.4,Win32,60,5ee3dcd47bfde60b782a3f3d,,1,0,80,74,1,79
,,,,,,,,,,,,,,,,,,,,,,,,,,,,,,,,,,,e,3.148000002,TRE,FALSE,,,,,,,183,tren,Catalan,Sounds/cat_tren.mp3,2020-06-13_22h26.53.156,TranslationElicitation_spa,3.2.4,Win32,60,5ee3dcd47bfde60b782a3f3d,,1,0,80,74,1,79
,,,,,,,,,,,,,,,,,,,,,,,,,,,,,,,,,,,n,3.314999819,TREN,FALSE,,,,,,,183,tren,Catalan,Sounds/cat_tren.mp3,2020-06-13_22h26.53.156,TranslationElicitation_spa,3.2.4,Win32,60,5ee3dcd47bfde60b782a3f3d,,1,0,80,74,1,79
,,,,,,,,,,,,,,,,,,,,,,,,,,,,,,,,,,,return,3.664999962,,FALSE,,,,,,,183,tren,Catalan,Sounds/cat_tren.mp3,2020-06-13_22h26.53.156,TranslationElicitation_spa,3.2.4,Win32,60,5ee3dcd47bfde60b782a3f3d,3.664999962,1,0,80,74,1,79
,,,,,,,,,,,,,,,,,,,,,,,,,,,,,,,,,,,,,,,,,,,,,183,tren,Catalan,Sounds/cat_tren.mp3,2020-06-13_22h26.53.156,TranslationElicitation_spa,3.2.4,Win32,60,5ee3dcd47bfde60b782a3f3d,,1,0,80,74,1,79
,,,,,,,,,,,,,,,,,,,,,,,,,,,,,,,,,,,n,3.329999924,N,FALSE,,,,,,,153,mico,Catalan,Sounds/cat_mico.mp3,2020-06-13_22h26.53.156,TranslationElicitation_spa,3.2.4,Win32,60,5ee3dcd47bfde60b782a3f3d,,1,0,80,47,1,79
,,,,,,,,,,,,,,,,,,,,,,,,,,,,,,,,,,,i,3.612999916,NI,FALSE,,,,,,,153,mico,Catalan,Sounds/cat_mico.mp3,2020-06-13_22h26.53.156,TranslationElicitation_spa,3.2.4,Win32,60,5ee3dcd47bfde60b782a3f3d,,1,0,80,47,1,79
,,,,,,,,,,,,,,,,,,,,,,,,,,,,,,,,,,,semicolon,4.112999916,NIÑ,FALSE,,,,,,,153,mico,Catalan,Sounds/cat_mico.mp3,2020-06-13_22h26.53.156,TranslationElicitation_spa,3.2.4,Win32,60,5ee3dcd47bfde60b782a3f3d,,1,0,80,47,1,79
,,,,,,,,,,,,,,,,,,,,,,,,,,,,,,,,,,,o,4.329999924,NIÑO,FALSE,,,,,,,153,mico,Catalan,Sounds/cat_mico.mp3,2020-06-13_22h26.53.156,TranslationElicitation_spa,3.2.4,Win32,60,5ee3dcd47bfde60b782a3f3d,,1,0,80,47,1,79
,,,,,,,,,,,,,,,,,,,,,,,,,,,,,,,,,,,return,4.612999916,,FALSE,,,,,,,153,mico,Catalan,Sounds/cat_mico.mp3,2020-06-13_22h26.53.156,TranslationElicitation_spa,3.2.4,Win32,60,5ee3dcd47bfde60b782a3f3d,4.612999916,1,0,80,47,1,79
,,,,,,,,,,,,,,,,,,,,,,,,,,,,,,,,,,,,,,,,,,,,,153,mico,Catalan,Sounds/cat_mico.mp3,2020-06-13_22h26.53.156,TranslationElicitation_spa,3.2.4,Win32,60,5ee3dcd47bfde60b782a3f3d,,1,0,80,47,1,79
,,,,,,,,,,,,,,,,,,,,,,,,,,,,,,,,,,,n,4.746999979,N,FALSE,,,,,,,115,bolet,Catalan,Sounds/cat_bolet.mp3,2020-06-13_22h26.53.156,TranslationElicitation_spa,3.2.4,Win32,60,5ee3dcd47bfde60b782a3f3d,,1,0,80,10,1,79
,,,,,,,,,,,,,,,,,,,,,,,,,,,,,,,,,,,backspace,5.513000011,,TRUE,,,,,,,115,bolet,Catalan,Sounds/cat_bolet.mp3,2020-06-13_22h26.53.156,TranslationElicitation_spa,3.2.4,Win32,60,5ee3dcd47bfde60b782a3f3d,,1,0,80,10,1,79
,,,,,,,,,,,,,,,,,,,,,,,,,,,,,,,,,,,b,5.779999971,B,TRUE,,,,,,,115,bolet,Catalan,Sounds/cat_bolet.mp3,2020-06-13_22h26.53.156,TranslationElicitation_spa,3.2.4,Win32,60,5ee3dcd47bfde60b782a3f3d,,1,0,80,10,1,79
,,,,,,,,,,,,,,,,,,,,,,,,,,,,,,,,,,,u,5.828999996,BU,TRUE,,,,,,,115,bolet,Catalan,Sounds/cat_bolet.mp3,2020-06-13_22h26.53.156,TranslationElicitation_spa,3.2.4,Win32,60,5ee3dcd47bfde60b782a3f3d,,1,0,80,10,1,79
,,,,,,,,,,,,,,,,,,,,,,,,,,,,,,,,,,,l,6.229000092,BUL,TRUE,,,,,,,115,bolet,Catalan,Sounds/cat_bolet.mp3,2020-06-13_22h26.53.156,TranslationElicitation_spa,3.2.4,Win32,60,5ee3dcd47bfde60b782a3f3d,,1,0,80,10,1,79
,,,,,,,,,,,,,,,,,,,,,,,,,,,,,,,,,,,e,6.696000099,BULE,TRUE,,,,,,,115,bolet,Catalan,Sounds/cat_bolet.mp3,2020-06-13_22h26.53.156,TranslationElicitation_spa,3.2.4,Win32,60,5ee3dcd47bfde60b782a3f3d,,1,0,80,10,1,79
,,,,,,,,,,,,,,,,,,,,,,,,,,,,,,,,,,,t,7.029000044,BULET,TRUE,,,,,,,115,bolet,Catalan,Sounds/cat_bolet.mp3,2020-06-13_22h26.53.156,TranslationElicitation_spa,3.2.4,Win32,60,5ee3dcd47bfde60b782a3f3d,,1,0,80,10,1,79
,,,,,,,,,,,,,,,,,,,,,,,,,,,,,,,,,,,return,7.394999981,,TRUE,,,,,,,115,bolet,Catalan,Sounds/cat_bolet.mp3,2020-06-13_22h26.53.156,TranslationElicitation_spa,3.2.4,Win32,60,5ee3dcd47bfde60b782a3f3d,7.394999981,1,0,80,10,1,79
,,,,,,,,,,,,,,,,,,,,,,,,,,,,,,,,,,,,,,,,,,,,,115,bolet,Catalan,Sounds/cat_bolet.mp3,2020-06-13_22h26.53.156,TranslationElicitation_spa,3.2.4,Win32,60,5ee3dcd47bfde60b782a3f3d,,1,0,80,10,1,79
,,,,,,,,,,,,,,,,,,,,,,,,,,,,,,,,,,,b,2.06400013,B,FALSE,,,,,,,114,bol,Catalan,Sounds/cat_bol.mp3,2020-06-13_22h26.53.156,TranslationElicitation_spa,3.2.4,Win32,60,5ee3dcd47bfde60b782a3f3d,,1,0,80,9,1,79
,,,,,,,,,,,,,,,,,,,,,,,,,,,,,,,,,,,o,2.680999994,BO,FALSE,,,,,,,114,bol,Catalan,Sounds/cat_bol.mp3,2020-06-13_22h26.53.156,TranslationElicitation_spa,3.2.4,Win32,60,5ee3dcd47bfde60b782a3f3d,,1,0,80,9,1,79
,,,,,,,,,,,,,,,,,,,,,,,,,,,,,,,,,,,l,3.513999939,BOL,FALSE,,,,,,,114,bol,Catalan,Sounds/cat_bol.mp3,2020-06-13_22h26.53.156,TranslationElicitation_spa,3.2.4,Win32,60,5ee3dcd47bfde60b782a3f3d,,1,0,80,9,1,79
,,,,,,,,,,,,,,,,,,,,,,,,,,,,,,,,,,,return,4.145999908,,FALSE,,,,,,,114,bol,Catalan,Sounds/cat_bol.mp3,2020-06-13_22h26.53.156,TranslationElicitation_spa,3.2.4,Win32,60,5ee3dcd47bfde60b782a3f3d,4.145999908,1,0,80,9,1,79
,,,,,,,,,,,,,,,,,,,,,,,,,,,,,,,,,,,,,,,,,,,,,114,bol,Catalan,Sounds/cat_bol.mp3,2020-06-13_22h26.53.156,TranslationElicitation_spa,3.2.4,Win32,60,5ee3dcd47bfde60b782a3f3d,,1,0,80,9,1,79
,,,,,,,,,,,,,,,,,,,,,,,,,,,,,,,,,,,c,2.047999859,C,FALSE,,,,,,,120,cama,Catalan,Sounds/cat_cama.mp3,2020-06-13_22h26.53.156,TranslationElicitation_spa,3.2.4,Win32,60,5ee3dcd47bfde60b782a3f3d,,1,0,80,15,1,79
,,,,,,,,,,,,,,,,,,,,,,,,,,,,,,,,,,,a,2.381000042,CA,FALSE,,,,,,,120,cama,Catalan,Sounds/cat_cama.mp3,2020-06-13_22h26.53.156,TranslationElicitation_spa,3.2.4,Win32,60,5ee3dcd47bfde60b782a3f3d,,1,0,80,15,1,79
,,,,,,,,,,,,,,,,,,,,,,,,,,,,,,,,,,,m,2.570999861,CAM,FALSE,,,,,,,120,cama,Catalan,Sounds/cat_cama.mp3,2020-06-13_22h26.53.156,TranslationElicitation_spa,3.2.4,Win32,60,5ee3dcd47bfde60b782a3f3d,,1,0,80,15,1,79
,,,,,,,,,,,,,,,,,,,,,,,,,,,,,,,,,,,a,2.664999962,CAMA,FALSE,,,,,,,120,cama,Catalan,Sounds/cat_cama.mp3,2020-06-13_22h26.53.156,TranslationElicitation_spa,3.2.4,Win32,60,5ee3dcd47bfde60b782a3f3d,,1,0,80,15,1,79
,,,,,,,,,,,,,,,,,,,,,,,,,,,,,,,,,,,return,3.014999866,,FALSE,,,,,,,120,cama,Catalan,Sounds/cat_cama.mp3,2020-06-13_22h26.53.156,TranslationElicitation_spa,3.2.4,Win32,60,5ee3dcd47bfde60b782a3f3d,3.014999866,1,0,80,15,1,79
,,,,,,,,,,,,,,,,,,,,,,,,,,,,,,,,,,,,,,,,,,,,,120,cama,Catalan,Sounds/cat_cama.mp3,2020-06-13_22h26.53.156,TranslationElicitation_spa,3.2.4,Win32,60,5ee3dcd47bfde60b782a3f3d,,1,0,80,15,1,79
,,,,,,,,,,,,,,,,,,,,,,,,,,,,,,,,,,,c,1.596999884,C,FALSE,,,,,,,121,camisa,Catalan,Sounds/cat_camisa.mp3,2020-06-13_22h26.53.156,TranslationElicitation_spa,3.2.4,Win32,60,5ee3dcd47bfde60b782a3f3d,,1,0,80,16,1,79
,,,,,,,,,,,,,,,,,,,,,,,,,,,,,,,,,,,a,1.746999979,CA,FALSE,,,,,,,121,camisa,Catalan,Sounds/cat_camisa.mp3,2020-06-13_22h26.53.156,TranslationElicitation_spa,3.2.4,Win32,60,5ee3dcd47bfde60b782a3f3d,,1,0,80,16,1,79
,,,,,,,,,,,,,,,,,,,,,,,,,,,,,,,,,,,m,2.013999939,CAM,FALSE,,,,,,,121,camisa,Catalan,Sounds/cat_camisa.mp3,2020-06-13_22h26.53.156,TranslationElicitation_spa,3.2.4,Win32,60,5ee3dcd47bfde60b782a3f3d,,1,0,80,16,1,79
,,,,,,,,,,,,,,,,,,,,,,,,,,,,,,,,,,,i,2.226000071,CAMI,FALSE,,,,,,,121,camisa,Catalan,Sounds/cat_camisa.mp3,2020-06-13_22h26.53.156,TranslationElicitation_spa,3.2.4,Win32,60,5ee3dcd47bfde60b782a3f3d,,1,0,80,16,1,79
,,,,,,,,,,,,,,,,,,,,,,,,,,,,,,,,,,,s,2.312000036,CAMIS,FALSE,,,,,,,121,camisa,Catalan,Sounds/cat_camisa.mp3,2020-06-13_22h26.53.156,TranslationElicitation_spa,3.2.4,Win32,60,5ee3dcd47bfde60b782a3f3d,,1,0,80,16,1,79
,,,,,,,,,,,,,,,,,,,,,,,,,,,,,,,,,,,a,2.578999996,CAMISA,FALSE,,,,,,,121,camisa,Catalan,Sounds/cat_camisa.mp3,2020-06-13_22h26.53.156,TranslationElicitation_spa,3.2.4,Win32,60,5ee3dcd47bfde60b782a3f3d,,1,0,80,16,1,79
,,,,,,,,,,,,,,,,,,,,,,,,,,,,,,,,,,,return,2.828999996,,FALSE,,,,,,,121,camisa,Catalan,Sounds/cat_camisa.mp3,2020-06-13_22h26.53.156,TranslationElicitation_spa,3.2.4,Win32,60,5ee3dcd47bfde60b782a3f3d,2.828999996,1,0,80,16,1,79
,,,,,,,,,,,,,,,,,,,,,,,,,,,,,,,,,,,,,,,,,,,,,121,camisa,Catalan,Sounds/cat_camisa.mp3,2020-06-13_22h26.53.156,TranslationElicitation_spa,3.2.4,Win32,60,5ee3dcd47bfde60b782a3f3d,,1,0,80,16,1,79
,,,,,,,,,,,,,,,,,,,,,,,,,,,,,,,,,,,p,1.298000097,P,FALSE,,,,,,,164,patata,Catalan,Sounds/cat_patata.mp3,2020-06-13_22h26.53.156,TranslationElicitation_spa,3.2.4,Win32,60,5ee3dcd47bfde60b782a3f3d,,1,0,80,57,1,79
,,,,,,,,,,,,,,,,,,,,,,,,,,,,,,,,,,,a,1.43200016,PA,FALSE,,,,,,,164,patata,Catalan,Sounds/cat_patata.mp3,2020-06-13_22h26.53.156,TranslationElicitation_spa,3.2.4,Win32,60,5ee3dcd47bfde60b782a3f3d,,1,0,80,57,1,79
,,,,,,,,,,,,,,,,,,,,,,,,,,,,,,,,,,,t,1.697999954,PAT,FALSE,,,,,,,164,patata,Catalan,Sounds/cat_patata.mp3,2020-06-13_22h26.53.156,TranslationElicitation_spa,3.2.4,Win32,60,5ee3dcd47bfde60b782a3f3d,,1,0,80,57,1,79
,,,,,,,,,,,,,,,,,,,,,,,,,,,,,,,,,,,a,2.164000034,PATA,FALSE,,,,,,,164,patata,Catalan,Sounds/cat_patata.mp3,2020-06-13_22h26.53.156,TranslationElicitation_spa,3.2.4,Win32,60,5ee3dcd47bfde60b782a3f3d,,1,0,80,57,1,79
,,,,,,,,,,,,,,,,,,,,,,,,,,,,,,,,,,,r,2.447999954,PATAR,FALSE,,,,,,,164,patata,Catalan,Sounds/cat_patata.mp3,2020-06-13_22h26.53.156,TranslationElicitation_spa,3.2.4,Win32,60,5ee3dcd47bfde60b782a3f3d,,1,0,80,57,1,79
,,,,,,,,,,,,,,,,,,,,,,,,,,,,,,,,,,,backspace,2.86500001,PAT,TRUE,,,,,,,164,patata,Catalan,Sounds/cat_patata.mp3,2020-06-13_22h26.53.156,TranslationElicitation_spa,3.2.4,Win32,60,5ee3dcd47bfde60b782a3f3d,,1,0,80,57,1,79
,,,,,,,,,,,,,,,,,,,,,,,,,,,,,,,,,,,t,3.131999969,PATT,TRUE,,,,,,,164,patata,Catalan,Sounds/cat_patata.mp3,2020-06-13_22h26.53.156,TranslationElicitation_spa,3.2.4,Win32,60,5ee3dcd47bfde60b782a3f3d,,1,0,80,57,1,79
,,,,,,,,,,,,,,,,,,,,,,,,,,,,,,,,,,,a,3.31400013,PATTA,TRUE,,,,,,,164,patata,Catalan,Sounds/cat_patata.mp3,2020-06-13_22h26.53.156,TranslationElicitation_spa,3.2.4,Win32,60,5ee3dcd47bfde60b782a3f3d,,1,0,80,57,1,79
,,,,,,,,,,,,,,,,,,,,,,,,,,,,,,,,,,,backspace,3.934000015,PAT,TRUE,,,,,,,164,patata,Catalan,Sounds/cat_patata.mp3,2020-06-13_22h26.53.156,TranslationElicitation_spa,3.2.4,Win32,60,5ee3dcd47bfde60b782a3f3d,,1,0,80,57,1,79
,,,,,,,,,,,,,,,,,,,,,,,,,,,,,,,,,,,a,4.463000059,PATA,TRUE,,,,,,,164,patata,Catalan,Sounds/cat_patata.mp3,2020-06-13_22h26.53.156,TranslationElicitation_spa,3.2.4,Win32,60,5ee3dcd47bfde60b782a3f3d,,1,0,80,57,1,79
,,,,,,,,,,,,,,,,,,,,,,,,,,,,,,,,,,,t,5,PATAT,TRUE,,,,,,,164,patata,Catalan,Sounds/cat_patata.mp3,2020-06-13_22h26.53.156,TranslationElicitation_spa,3.2.4,Win32,60,5ee3dcd47bfde60b782a3f3d,,1,0,80,57,1,79
,,,,,,,,,,,,,,,,,,,,,,,,,,,,,,,,,,,a,5.180000067,PATATA,TRUE,,,,,,,164,patata,Catalan,Sounds/cat_patata.mp3,2020-06-13_22h26.53.156,TranslationElicitation_spa,3.2.4,Win32,60,5ee3dcd47bfde60b782a3f3d,,1,0,80,57,1,79
,,,,,,,,,,,,,,,,,,,,,,,,,,,,,,,,,,,return,5.595999956,,TRUE,,,,,,,164,patata,Catalan,Sounds/cat_patata.mp3,2020-06-13_22h26.53.156,TranslationElicitation_spa,3.2.4,Win32,60,5ee3dcd47bfde60b782a3f3d,5.595999956,1,0,80,57,1,79
,,,,,,,,,,,,,,,,,,,,,,,,,,,,,,,,,,,,,,,,,,,,,164,patata,Catalan,Sounds/cat_patata.mp3,2020-06-13_22h26.53.156,TranslationElicitation_spa,3.2.4,Win32,60,5ee3dcd47bfde60b782a3f3d,,1,0,80,57,1,79
,,,,,,,,,,,,,,,,,,,,,,,,,,,,,,,,,,,c,11.34099984,C,FALSE,,,,,,,172,poma,Catalan,Sounds/cat_poma.mp3,2020-06-13_22h26.53.156,TranslationElicitation_spa,3.2.4,Win32,60,5ee3dcd47bfde60b782a3f3d,,1,0,80,64,1,79
,,,,,,,,,,,,,,,,,,,,,,,,,,,,,,,,,,,r,11.64099979,CR,FALSE,,,,,,,172,poma,Catalan,Sounds/cat_poma.mp3,2020-06-13_22h26.53.156,TranslationElicitation_spa,3.2.4,Win32,60,5ee3dcd47bfde60b782a3f3d,,1,0,80,64,1,79
,,,,,,,,,,,,,,,,,,,,,,,,,,,,,,,,,,,e,11.75999999,CRE,FALSE,,,,,,,172,poma,Catalan,Sounds/cat_poma.mp3,2020-06-13_22h26.53.156,TranslationElicitation_spa,3.2.4,Win32,60,5ee3dcd47bfde60b782a3f3d,,1,0,80,64,1,79
,,,,,,,,,,,,,,,,,,,,,,,,,,,,,,,,,,,m,11.99099994,CREM,FALSE,,,,,,,172,poma,Catalan,Sounds/cat_poma.mp3,2020-06-13_22h26.53.156,TranslationElicitation_spa,3.2.4,Win32,60,5ee3dcd47bfde60b782a3f3d,,1,0,80,64,1,79
,,,,,,,,,,,,,,,,,,,,,,,,,,,,,,,,,,,a,12.1079998,CREMA,FALSE,,,,,,,172,poma,Catalan,Sounds/cat_poma.mp3,2020-06-13_22h26.53.156,TranslationElicitation_spa,3.2.4,Win32,60,5ee3dcd47bfde60b782a3f3d,,1,0,80,64,1,79
,,,,,,,,,,,,,,,,,,,,,,,,,,,,,,,,,,,return,13.78999996,,FALSE,,,,,,,172,poma,Catalan,Sounds/cat_poma.mp3,2020-06-13_22h26.53.156,TranslationElicitation_spa,3.2.4,Win32,60,5ee3dcd47bfde60b782a3f3d,13.78999996,1,0,80,64,1,79
,,,,,,,,,,,,,,,,,,,,,,,,,,,,,,,,,,,,,,,,,,,,,172,poma,Catalan,Sounds/cat_poma.mp3,2020-06-13_22h26.53.156,TranslationElicitation_spa,3.2.4,Win32,60,5ee3dcd47bfde60b782a3f3d,,1,0,80,64,1,79
,,,,,,,,,,,,,,,,,,,,,,,,,,,,,,,,,,,l,1.811000109,L,FALSE,,,,,,,149,llibre,Catalan,Sounds/cat_llibre.mp3,2020-06-13_22h26.53.156,TranslationElicitation_spa,3.2.4,Win32,60,5ee3dcd47bfde60b782a3f3d,,1,0,80,43,1,79
,,,,,,,,,,,,,,,,,,,,,,,,,,,,,,,,,,,i,2.044000149,LI,FALSE,,,,,,,149,llibre,Catalan,Sounds/cat_llibre.mp3,2020-06-13_22h26.53.156,TranslationElicitation_spa,3.2.4,Win32,60,5ee3dcd47bfde60b782a3f3d,,1,0,80,43,1,79
,,,,,,,,,,,,,,,,,,,,,,,,,,,,,,,,,,,b,2.294000149,LIB,FALSE,,,,,,,149,llibre,Catalan,Sounds/cat_llibre.mp3,2020-06-13_22h26.53.156,TranslationElicitation_spa,3.2.4,Win32,60,5ee3dcd47bfde60b782a3f3d,,1,0,80,43,1,79
,,,,,,,,,,,,,,,,,,,,,,,,,,,,,,,,,,,r,2.427000046,LIBR,FALSE,,,,,,,149,llibre,Catalan,Sounds/cat_llibre.mp3,2020-06-13_22h26.53.156,TranslationElicitation_spa,3.2.4,Win32,60,5ee3dcd47bfde60b782a3f3d,,1,0,80,43,1,79
,,,,,,,,,,,,,,,,,,,,,,,,,,,,,,,,,,,o,2.677000046,LIBRO,FALSE,,,,,,,149,llibre,Catalan,Sounds/cat_llibre.mp3,2020-06-13_22h26.53.156,TranslationElicitation_spa,3.2.4,Win32,60,5ee3dcd47bfde60b782a3f3d,,1,0,80,43,1,79
,,,,,,,,,,,,,,,,,,,,,,,,,,,,,,,,,,,return,2.910000086,,FALSE,,,,,,,149,llibre,Catalan,Sounds/cat_llibre.mp3,2020-06-13_22h26.53.156,TranslationElicitation_spa,3.2.4,Win32,60,5ee3dcd47bfde60b782a3f3d,2.910000086,1,0,80,43,1,79
,,,,,,,,,,,,,,,,,,,,,,,,,,,,,,,,,,,,,,,,,,,,,149,llibre,Catalan,Sounds/cat_llibre.mp3,2020-06-13_22h26.53.156,TranslationElicitation_spa,3.2.4,Win32,60,5ee3dcd47bfde60b782a3f3d,,1,0,80,43,1,79
,,,,,,,,,,,,,,,,,,,,,,,,,,,,,,,,,,,l,2.348999977,L,FALSE,,,,,,,148,lleo,Catalan,Sounds/cat_lleo.mp3,2020-06-13_22h26.53.156,TranslationElicitation_spa,3.2.4,Win32,60,5ee3dcd47bfde60b782a3f3d,,1,0,80,42,1,79
,,,,,,,,,,,,,,,,,,,,,,,,,,,,,,,,,,,e,2.546999931,LE,FALSE,,,,,,,148,lleo,Catalan,Sounds/cat_lleo.mp3,2020-06-13_22h26.53.156,TranslationElicitation_spa,3.2.4,Win32,60,5ee3dcd47bfde60b782a3f3d,,1,0,80,42,1,79
,,,,,,,,,,,,,,,,,,,,,,,,,,,,,,,,,,,o,2.696999788,LEO,FALSE,,,,,,,148,lleo,Catalan,Sounds/cat_lleo.mp3,2020-06-13_22h26.53.156,TranslationElicitation_spa,3.2.4,Win32,60,5ee3dcd47bfde60b782a3f3d,,1,0,80,42,1,79
,,,,,,,,,,,,,,,,,,,,,,,,,,,,,,,,,,,n,2.929999828,LEON,FALSE,,,,,,,148,lleo,Catalan,Sounds/cat_lleo.mp3,2020-06-13_22h26.53.156,TranslationElicitation_spa,3.2.4,Win32,60,5ee3dcd47bfde60b782a3f3d,,1,0,80,42,1,79
,,,,,,,,,,,,,,,,,,,,,,,,,,,,,,,,,,,return,3.296000004,,FALSE,,,,,,,148,lleo,Catalan,Sounds/cat_lleo.mp3,2020-06-13_22h26.53.156,TranslationElicitation_spa,3.2.4,Win32,60,5ee3dcd47bfde60b782a3f3d,3.296000004,1,0,80,42,1,79
,,,,,,,,,,,,,,,,,,,,,,,,,,,,,,,,,,,,,,,,,,,,,148,lleo,Catalan,Sounds/cat_lleo.mp3,2020-06-13_22h26.53.156,TranslationElicitation_spa,3.2.4,Win32,60,5ee3dcd47bfde60b782a3f3d,,1,0,80,42,1,79
,,,,,,,,,,,,,,,,,,,,,,,,,,,,,,,,,,,o,1.779999971,O,FALSE,,,,,,,161,ovella,Catalan,Sounds/cat_ovella.mp3,2020-06-13_22h26.53.156,TranslationElicitation_spa,3.2.4,Win32,60,5ee3dcd47bfde60b782a3f3d,,1,0,80,54,1,79
,,,,,,,,,,,,,,,,,,,,,,,,,,,,,,,,,,,r,1.930000067,OR,FALSE,,,,,,,161,ovella,Catalan,Sounds/cat_ovella.mp3,2020-06-13_22h26.53.156,TranslationElicitation_spa,3.2.4,Win32,60,5ee3dcd47bfde60b782a3f3d,,1,0,80,54,1,79
,,,,,,,,,,,,,,,,,,,,,,,,,,,,,,,,,,,e,2.046999931,ORE,FALSE,,,,,,,161,ovella,Catalan,Sounds/cat_ovella.mp3,2020-06-13_22h26.53.156,TranslationElicitation_spa,3.2.4,Win32,60,5ee3dcd47bfde60b782a3f3d,,1,0,80,54,1,79
,,,,,,,,,,,,,,,,,,,,,,,,,,,,,,,,,,,j,2.263999939,OREJ,FALSE,,,,,,,161,ovella,Catalan,Sounds/cat_ovella.mp3,2020-06-13_22h26.53.156,TranslationElicitation_spa,3.2.4,Win32,60,5ee3dcd47bfde60b782a3f3d,,1,0,80,54,1,79
,,,,,,,,,,,,,,,,,,,,,,,,,,,,,,,,,,,a,2.397000074,OREJA,FALSE,,,,,,,161,ovella,Catalan,Sounds/cat_ovella.mp3,2020-06-13_22h26.53.156,TranslationElicitation_spa,3.2.4,Win32,60,5ee3dcd47bfde60b782a3f3d,,1,0,80,54,1,79
,,,,,,,,,,,,,,,,,,,,,,,,,,,,,,,,,,,return,2.680999994,,FALSE,,,,,,,161,ovella,Catalan,Sounds/cat_ovella.mp3,2020-06-13_22h26.53.156,TranslationElicitation_spa,3.2.4,Win32,60,5ee3dcd47bfde60b782a3f3d,2.680999994,1,0,80,54,1,79
,,,,,,,,,,,,,,,,,,,,,,,,,,,,,,,,,,,,,,,,,,,,,161,ovella,Catalan,Sounds/cat_ovella.mp3,2020-06-13_22h26.53.156,TranslationElicitation_spa,3.2.4,Win32,60,5ee3dcd47bfde60b782a3f3d,,1,0,80,54,1,79
,,,,,,,,,,,,,,,,,,,,,,,,,,,,,,,,,,,o,2.963000059,O,FALSE,,,,,,,136,forquilla,Catalan,Sounds/cat_forquilla.mp3,2020-06-13_22h26.53.156,TranslationElicitation_spa,3.2.4,Win32,60,5ee3dcd47bfde60b782a3f3d,,1,0,80,31,1,79
,,,,,,,,,,,,,,,,,,,,,,,,,,,,,,,,,,,r,3.28000021,OR,FALSE,,,,,,,136,forquilla,Catalan,Sounds/cat_forquilla.mp3,2020-06-13_22h26.53.156,TranslationElicitation_spa,3.2.4,Win32,60,5ee3dcd47bfde60b782a3f3d,,1,0,80,31,1,79
,,,,,,,,,,,,,,,,,,,,,,,,,,,,,,,,,,,q,3.54700017,ORQ,FALSE,,,,,,,136,forquilla,Catalan,Sounds/cat_forquilla.mp3,2020-06-13_22h26.53.156,TranslationElicitation_spa,3.2.4,Win32,60,5ee3dcd47bfde60b782a3f3d,,1,0,80,31,1,79
,,,,,,,,,,,,,,,,,,,,,,,,,,,,,,,,,,,u,3.696000099,ORQU,FALSE,,,,,,,136,forquilla,Catalan,Sounds/cat_forquilla.mp3,2020-06-13_22h26.53.156,TranslationElicitation_spa,3.2.4,Win32,60,5ee3dcd47bfde60b782a3f3d,,1,0,80,31,1,79
,,,,,,,,,,,,,,,,,,,,,,,,,,,,,,,,,,,i,3.913000107,ORQUI,FALSE,,,,,,,136,forquilla,Catalan,Sounds/cat_forquilla.mp3,2020-06-13_22h26.53.156,TranslationElicitation_spa,3.2.4,Win32,60,5ee3dcd47bfde60b782a3f3d,,1,0,80,31,1,79
,,,,,,,,,,,,,,,,,,,,,,,,,,,,,,,,,,,l,4.279000044,ORQUIL,FALSE,,,,,,,136,forquilla,Catalan,Sounds/cat_forquilla.mp3,2020-06-13_22h26.53.156,TranslationElicitation_spa,3.2.4,Win32,60,5ee3dcd47bfde60b782a3f3d,,1,0,80,31,1,79
,,,,,,,,,,,,,,,,,,,,,,,,,,,,,,,,,,,l,4.446000099,ORQUILL,FALSE,,,,,,,136,forquilla,Catalan,Sounds/cat_forquilla.mp3,2020-06-13_22h26.53.156,TranslationElicitation_spa,3.2.4,Win32,60,5ee3dcd47bfde60b782a3f3d,,1,0,80,31,1,79
,,,,,,,,,,,,,,,,,,,,,,,,,,,,,,,,,,,a,4.546000004,ORQUILLA,FALSE,,,,,,,136,forquilla,Catalan,Sounds/cat_forquilla.mp3,2020-06-13_22h26.53.156,TranslationElicitation_spa,3.2.4,Win32,60,5ee3dcd47bfde60b782a3f3d,,1,0,80,31,1,79
,,,,,,,,,,,,,,,,,,,,,,,,,,,,,,,,,,,return,5.412000179,,FALSE,,,,,,,136,forquilla,Catalan,Sounds/cat_forquilla.mp3,2020-06-13_22h26.53.156,TranslationElicitation_spa,3.2.4,Win32,60,5ee3dcd47bfde60b782a3f3d,5.412000179,1,0,80,31,1,79
,,,,,,,,,,,,,,,,,,,,,,,,,,,,,,,,,,,,,,,,,,,,,136,forquilla,Catalan,Sounds/cat_forquilla.mp3,2020-06-13_22h26.53.156,TranslationElicitation_spa,3.2.4,Win32,60,5ee3dcd47bfde60b782a3f3d,,1,0,80,31,1,79
,,,,,,,,,,,,,,,,,,,,,,,,,,,,,,,,,,,c,3.992000103,C,FALSE,,,,,,,119,caixa,Catalan,Sounds/cat_caixa.mp3,2020-06-13_22h26.53.156,TranslationElicitation_spa,3.2.4,Win32,60,5ee3dcd47bfde60b782a3f3d,,1,0,80,14,1,79
,,,,,,,,,,,,,,,,,,,,,,,,,,,,,,,,,,,a,4.430000067,CA,FALSE,,,,,,,119,caixa,Catalan,Sounds/cat_caixa.mp3,2020-06-13_22h26.53.156,TranslationElicitation_spa,3.2.4,Win32,60,5ee3dcd47bfde60b782a3f3d,,1,0,80,14,1,79
,,,,,,,,,,,,,,,,,,,,,,,,,,,,,,,,,,,s,4.730000019,CAS,FALSE,,,,,,,119,caixa,Catalan,Sounds/cat_caixa.mp3,2020-06-13_22h26.53.156,TranslationElicitation_spa,3.2.4,Win32,60,5ee3dcd47bfde60b782a3f3d,,1,0,80,14,1,79
,,,,,,,,,,,,,,,,,,,,,,,,,,,,,,,,,,,a,4.847000122,CASA,FALSE,,,,,,,119,caixa,Catalan,Sounds/cat_caixa.mp3,2020-06-13_22h26.53.156,TranslationElicitation_spa,3.2.4,Win32,60,5ee3dcd47bfde60b782a3f3d,,1,0,80,14,1,79
,,,,,,,,,,,,,,,,,,,,,,,,,,,,,,,,,,,return,5.079999924,,FALSE,,,,,,,119,caixa,Catalan,Sounds/cat_caixa.mp3,2020-06-13_22h26.53.156,TranslationElicitation_spa,3.2.4,Win32,60,5ee3dcd47bfde60b782a3f3d,5.079999924,1,0,80,14,1,79
,,,,,,,,,,,,,,,,,,,,,,,,,,,,,,,,,,,,,,,,,,,,,119,caixa,Catalan,Sounds/cat_caixa.mp3,2020-06-13_22h26.53.156,TranslationElicitation_spa,3.2.4,Win32,60,5ee3dcd47bfde60b782a3f3d,,1,0,80,14,1,79
,,,,,,,,,,,,,,,,,,,,,,,,,,,,,,,,,,,o,1.315999985,O,FALSE,,,,,,,160,orella,Catalan,Sounds/cat_orella.mp3,2020-06-13_22h26.53.156,TranslationElicitation_spa,3.2.4,Win32,60,5ee3dcd47bfde60b782a3f3d,,1,0,80,53,1,79
,,,,,,,,,,,,,,,,,,,,,,,,,,,,,,,,,,,r,1.464999914,OR,FALSE,,,,,,,160,orella,Catalan,Sounds/cat_orella.mp3,2020-06-13_22h26.53.156,TranslationElicitation_spa,3.2.4,Win32,60,5ee3dcd47bfde60b782a3f3d,,1,0,80,53,1,79
,,,,,,,,,,,,,,,,,,,,,,,,,,,,,,,,,,,e,1.564999819,ORE,FALSE,,,,,,,160,orella,Catalan,Sounds/cat_orella.mp3,2020-06-13_22h26.53.156,TranslationElicitation_spa,3.2.4,Win32,60,5ee3dcd47bfde60b782a3f3d,,1,0,80,53,1,79
,,,,,,,,,,,,,,,,,,,,,,,,,,,,,,,,,,,j,1.781999826,OREJ,FALSE,,,,,,,160,orella,Catalan,Sounds/cat_orella.mp3,2020-06-13_22h26.53.156,TranslationElicitation_spa,3.2.4,Win32,60,5ee3dcd47bfde60b782a3f3d,,1,0,80,53,1,79
,,,,,,,,,,,,,,,,,,,,,,,,,,,,,,,,,,,a,1.898999929,OREJA,FALSE,,,,,,,160,orella,Catalan,Sounds/cat_orella.mp3,2020-06-13_22h26.53.156,TranslationElicitation_spa,3.2.4,Win32,60,5ee3dcd47bfde60b782a3f3d,,1,0,80,53,1,79
,,,,,,,,,,,,,,,,,,,,,,,,,,,,,,,,,,,return,2.11500001,,FALSE,,,,,,,160,orella,Catalan,Sounds/cat_orella.mp3,2020-06-13_22h26.53.156,TranslationElicitation_spa,3.2.4,Win32,60,5ee3dcd47bfde60b782a3f3d,2.11500001,1,0,80,53,1,79
,,,,,,,,,,,,,,,,,,,,,,,,,,,,,,,,,,,,,,,,,,,,,160,orella,Catalan,Sounds/cat_orella.mp3,2020-06-13_22h26.53.156,TranslationElicitation_spa,3.2.4,Win32,60,5ee3dcd47bfde60b782a3f3d,,1,0,80,53,1,79
,,,,,,,,,,,,,,,,,,,,,,,,,,,,,,,,,,,p,4.013000011,P,FALSE,,,,,,,166,peu,Catalan,Sounds/cat_peu.mp3,2020-06-13_22h26.53.156,TranslationElicitation_spa,3.2.4,Win32,60,5ee3dcd47bfde60b782a3f3d,,1,0,80,59,1,79
,,,,,,,,,,,,,,,,,,,,,,,,,,,,,,,,,,,e,4.128999949,PE,FALSE,,,,,,,166,peu,Catalan,Sounds/cat_peu.mp3,2020-06-13_22h26.53.156,TranslationElicitation_spa,3.2.4,Win32,60,5ee3dcd47bfde60b782a3f3d,,1,0,80,59,1,79
,,,,,,,,,,,,,,,,,,,,,,,,,,,,,,,,,,,d,4.313999891,PED,FALSE,,,,,,,166,peu,Catalan,Sounds/cat_peu.mp3,2020-06-13_22h26.53.156,TranslationElicitation_spa,3.2.4,Win32,60,5ee3dcd47bfde60b782a3f3d,,1,0,80,59,1,79
,,,,,,,,,,,,,,,,,,,,,,,,,,,,,,,,,,,o,4.428999901,PEDO,FALSE,,,,,,,166,peu,Catalan,Sounds/cat_peu.mp3,2020-06-13_22h26.53.156,TranslationElicitation_spa,3.2.4,Win32,60,5ee3dcd47bfde60b782a3f3d,,1,0,80,59,1,79
,,,,,,,,,,,,,,,,,,,,,,,,,,,,,,,,,,,return,4.647000074,,FALSE,,,,,,,166,peu,Catalan,Sounds/cat_peu.mp3,2020-06-13_22h26.53.156,TranslationElicitation_spa,3.2.4,Win32,60,5ee3dcd47bfde60b782a3f3d,4.647000074,1,0,80,59,1,79
,,,,,,,,,,,,,,,,,,,,,,,,,,,,,,,,,,,,,,,,,,,,,166,peu,Catalan,Sounds/cat_peu.mp3,2020-06-13_22h26.53.156,TranslationElicitation_spa,3.2.4,Win32,60,5ee3dcd47bfde60b782a3f3d,,1,0,80,59,1,79
,,,,,,,,,,,,,,,,,,,,,,,,,,,,,,,,,,,t,1.913999796,T,FALSE,,,,,,,181,tobogan,Catalan,Sounds/cat_tobogan.mp3,2020-06-13_22h26.53.156,TranslationElicitation_spa,3.2.4,Win32,60,5ee3dcd47bfde60b782a3f3d,,1,0,80,72,1,79
,,,,,,,,,,,,,,,,,,,,,,,,,,,,,,,,,,,o,2.097999811,TO,FALSE,,,,,,,181,tobogan,Catalan,Sounds/cat_tobogan.mp3,2020-06-13_22h26.53.156,TranslationElicitation_spa,3.2.4,Win32,60,5ee3dcd47bfde60b782a3f3d,,1,0,80,72,1,79
,,,,,,,,,,,,,,,,,,,,,,,,,,,,,,,,,,,b,2.413999796,TOB,FALSE,,,,,,,181,tobogan,Catalan,Sounds/cat_tobogan.mp3,2020-06-13_22h26.53.156,TranslationElicitation_spa,3.2.4,Win32,60,5ee3dcd47bfde60b782a3f3d,,1,0,80,72,1,79
,,,,,,,,,,,,,,,,,,,,,,,,,,,,,,,,,,,o,2.646999836,TOBO,FALSE,,,,,,,181,tobogan,Catalan,Sounds/cat_tobogan.mp3,2020-06-13_22h26.53.156,TranslationElicitation_spa,3.2.4,Win32,60,5ee3dcd47bfde60b782a3f3d,,1,0,80,72,1,79
,,,,,,,,,,,,,,,,,,,,,,,,,,,,,,,,,,,g,2.880999804,TOBOG,FALSE,,,,,,,181,tobogan,Catalan,Sounds/cat_tobogan.mp3,2020-06-13_22h26.53.156,TranslationElicitation_spa,3.2.4,Win32,60,5ee3dcd47bfde60b782a3f3d,,1,0,80,72,1,79
,,,,,,,,,,,,,,,,,,,,,,,,,,,,,,,,,,,apostrophe,3.596999884,TOBOG,FALSE,,,,,,,181,tobogan,Catalan,Sounds/cat_tobogan.mp3,2020-06-13_22h26.53.156,TranslationElicitation_spa,3.2.4,Win32,60,5ee3dcd47bfde60b782a3f3d,,1,0,80,72,1,79
,,,,,,,,,,,,,,,,,,,,,,,,,,,,,,,,,,,a,3.746999979,TOBOGÁ,FALSE,,,,,,,181,tobogan,Catalan,Sounds/cat_tobogan.mp3,2020-06-13_22h26.53.156,TranslationElicitation_spa,3.2.4,Win32,60,5ee3dcd47bfde60b782a3f3d,,1,0,80,72,1,79
,,,,,,,,,,,,,,,,,,,,,,,,,,,,,,,,,,,n,4.046000004,TOBOGÁN,FALSE,,,,,,,181,tobogan,Catalan,Sounds/cat_tobogan.mp3,2020-06-13_22h26.53.156,TranslationElicitation_spa,3.2.4,Win32,60,5ee3dcd47bfde60b782a3f3d,,1,0,80,72,1,79
,,,,,,,,,,,,,,,,,,,,,,,,,,,,,,,,,,,return,4.636999846,,FALSE,,,,,,,181,tobogan,Catalan,Sounds/cat_tobogan.mp3,2020-06-13_22h26.53.156,TranslationElicitation_spa,3.2.4,Win32,60,5ee3dcd47bfde60b782a3f3d,4.636999846,1,0,80,72,1,79
,,,,,,,,,,,,,,,,,,,,,,,,,,,,,,,,,,,,,,,,,,,,,181,tobogan,Catalan,Sounds/cat_tobogan.mp3,2020-06-13_22h26.53.156,TranslationElicitation_spa,3.2.4,Win32,60,5ee3dcd47bfde60b782a3f3d,,1,0,80,72,1,79
,,,,,,,,,,,,,,,,,,,,,,,,,,,,,,,,,,,s,2.08100009,S,FALSE,,,,,,,177,sol,Catalan,Sounds/cat_sol.mp3,2020-06-13_22h26.53.156,TranslationElicitation_spa,3.2.4,Win32,60,5ee3dcd47bfde60b782a3f3d,,1,0,80,69,1,79
,,,,,,,,,,,,,,,,,,,,,,,,,,,,,,,,,,,o,2.180999994,SO,FALSE,,,,,,,177,sol,Catalan,Sounds/cat_sol.mp3,2020-06-13_22h26.53.156,TranslationElicitation_spa,3.2.4,Win32,60,5ee3dcd47bfde60b782a3f3d,,1,0,80,69,1,79
,,,,,,,,,,,,,,,,,,,,,,,,,,,,,,,,,,,l,2.397000074,SOL,FALSE,,,,,,,177,sol,Catalan,Sounds/cat_sol.mp3,2020-06-13_22h26.53.156,TranslationElicitation_spa,3.2.4,Win32,60,5ee3dcd47bfde60b782a3f3d,,1,0,80,69,1,79
,,,,,,,,,,,,,,,,,,,,,,,,,,,,,,,,,,,return,2.78000021,,FALSE,,,,,,,177,sol,Catalan,Sounds/cat_sol.mp3,2020-06-13_22h26.53.156,TranslationElicitation_spa,3.2.4,Win32,60,5ee3dcd47bfde60b782a3f3d,2.78000021,1,0,80,69,1,79
,,,,,,,,,,,,,,,,,,,,,,,,,,,,,,,,,,,,,,,,,,,,,177,sol,Catalan,Sounds/cat_sol.mp3,2020-06-13_22h26.53.156,TranslationElicitation_spa,3.2.4,Win32,60,5ee3dcd47bfde60b782a3f3d,,1,0,80,69,1,79
,,,,,,,,,,,,,,,,,,,,,,,,,,,,,,,,,,,l,2.065000057,L,FALSE,,,,,,,151,lluna,Catalan,Sounds/cat_lluna.mp3,2020-06-13_22h26.53.156,TranslationElicitation_spa,3.2.4,Win32,60,5ee3dcd47bfde60b782a3f3d,,1,0,80,45,1,79
,,,,,,,,,,,,,,,,,,,,,,,,,,,,,,,,,,,u,2.530999899,LU,FALSE,,,,,,,151,lluna,Catalan,Sounds/cat_lluna.mp3,2020-06-13_22h26.53.156,TranslationElicitation_spa,3.2.4,Win32,60,5ee3dcd47bfde60b782a3f3d,,1,0,80,45,1,79
,,,,,,,,,,,,,,,,,,,,,,,,,,,,,,,,,,,n,2.947999954,LUN,FALSE,,,,,,,151,lluna,Catalan,Sounds/cat_lluna.mp3,2020-06-13_22h26.53.156,TranslationElicitation_spa,3.2.4,Win32,60,5ee3dcd47bfde60b782a3f3d,,1,0,80,45,1,79
,,,,,,,,,,,,,,,,,,,,,,,,,,,,,,,,,,,a,3.164000034,LUNA,FALSE,,,,,,,151,lluna,Catalan,Sounds/cat_lluna.mp3,2020-06-13_22h26.53.156,TranslationElicitation_spa,3.2.4,Win32,60,5ee3dcd47bfde60b782a3f3d,,1,0,80,45,1,79
,,,,,,,,,,,,,,,,,,,,,,,,,,,,,,,,,,,return,3.496999979,,FALSE,,,,,,,151,lluna,Catalan,Sounds/cat_lluna.mp3,2020-06-13_22h26.53.156,TranslationElicitation_spa,3.2.4,Win32,60,5ee3dcd47bfde60b782a3f3d,3.496999979,1,0,80,45,1,79
,,,,,,,,,,,,,,,,,,,,,,,,,,,,,,,,,,,,,,,,,,,,,151,lluna,Catalan,Sounds/cat_lluna.mp3,2020-06-13_22h26.53.156,TranslationElicitation_spa,3.2.4,Win32,60,5ee3dcd47bfde60b782a3f3d,,1,0,80,45,1,79
,,,,,,,,,,,,,,,,,,,,,,,,,,,,,,,,,,,g,1.596999884,G,FALSE,,,,,,,143,globus,Catalan,Sounds/cat_globus.mp3,2020-06-13_22h26.53.156,TranslationElicitation_spa,3.2.4,Win32,60,5ee3dcd47bfde60b782a3f3d,,1,0,80,38,1,79
,,,,,,,,,,,,,,,,,,,,,,,,,,,,,,,,,,,l,1.730999947,GL,FALSE,,,,,,,143,globus,Catalan,Sounds/cat_globus.mp3,2020-06-13_22h26.53.156,TranslationElicitation_spa,3.2.4,Win32,60,5ee3dcd47bfde60b782a3f3d,,1,0,80,38,1,79
,,,,,,,,,,,,,,,,,,,,,,,,,,,,,,,,,,,o,1.930999994,GLO,FALSE,,,,,,,143,globus,Catalan,Sounds/cat_globus.mp3,2020-06-13_22h26.53.156,TranslationElicitation_spa,3.2.4,Win32,60,5ee3dcd47bfde60b782a3f3d,,1,0,80,38,1,79
,,,,,,,,,,,,,,,,,,,,,,,,,,,,,,,,,,,b,2.180999994,GLOB,FALSE,,,,,,,143,globus,Catalan,Sounds/cat_globus.mp3,2020-06-13_22h26.53.156,TranslationElicitation_spa,3.2.4,Win32,60,5ee3dcd47bfde60b782a3f3d,,1,0,80,38,1,79
,,,,,,,,,,,,,,,,,,,,,,,,,,,,,,,,,,,o,2.463999987,GLOBO,FALSE,,,,,,,143,globus,Catalan,Sounds/cat_globus.mp3,2020-06-13_22h26.53.156,TranslationElicitation_spa,3.2.4,Win32,60,5ee3dcd47bfde60b782a3f3d,,1,0,80,38,1,79
,,,,,,,,,,,,,,,,,,,,,,,,,,,,,,,,,,,return,2.898000002,,FALSE,,,,,,,143,globus,Catalan,Sounds/cat_globus.mp3,2020-06-13_22h26.53.156,TranslationElicitation_spa,3.2.4,Win32,60,5ee3dcd47bfde60b782a3f3d,2.898000002,1,0,80,38,1,79
,,,,,,,,,,,,,,,,,,,,,,,,,,,,,,,,,,,,,,,,,,,,,143,globus,Catalan,Sounds/cat_globus.mp3,2020-06-13_22h26.53.156,TranslationElicitation_spa,3.2.4,Win32,60,5ee3dcd47bfde60b782a3f3d,,1,0,80,38,1,79
,,,,,,,,,,,,,,,,,,,,,,,,,,,,,,,,,,,g,11.99300003,G,FALSE,,,,,,,110,berenar,Catalan,Sounds/cat_berenar.mp3,2020-06-13_22h26.53.156,TranslationElicitation_spa,3.2.4,Win32,60,5ee3dcd47bfde60b782a3f3d,,1,0,80,5,1,79
,,,,,,,,,,,,,,,,,,,,,,,,,,,,,,,,,,,r,12.10899997,GR,FALSE,,,,,,,110,berenar,Catalan,Sounds/cat_berenar.mp3,2020-06-13_22h26.53.156,TranslationElicitation_spa,3.2.4,Win32,60,5ee3dcd47bfde60b782a3f3d,,1,0,80,5,1,79
,,,,,,,,,,,,,,,,,,,,,,,,,,,,,,,,,,,a,12.375,GRA,FALSE,,,,,,,110,berenar,Catalan,Sounds/cat_berenar.mp3,2020-06-13_22h26.53.156,TranslationElicitation_spa,3.2.4,Win32,60,5ee3dcd47bfde60b782a3f3d,,1,0,80,5,1,79
,,,,,,,,,,,,,,,,,,,,,,,,,,,,,,,,,,,n,12.52499986,GRAN,FALSE,,,,,,,110,berenar,Catalan,Sounds/cat_berenar.mp3,2020-06-13_22h26.53.156,TranslationElicitation_spa,3.2.4,Win32,60,5ee3dcd47bfde60b782a3f3d,,1,0,80,5,1,79
,,,,,,,,,,,,,,,,,,,,,,,,,,,,,,,,,,,a,12.8599999,GRANA,FALSE,,,,,,,110,berenar,Catalan,Sounds/cat_berenar.mp3,2020-06-13_22h26.53.156,TranslationElicitation_spa,3.2.4,Win32,60,5ee3dcd47bfde60b782a3f3d,,1,0,80,5,1,79
,,,,,,,,,,,,,,,,,,,,,,,,,,,,,,,,,,,d,13.17499995,GRANAD,FALSE,,,,,,,110,berenar,Catalan,Sounds/cat_berenar.mp3,2020-06-13_22h26.53.156,TranslationElicitation_spa,3.2.4,Win32,60,5ee3dcd47bfde60b782a3f3d,,1,0,80,5,1,79
,,,,,,,,,,,,,,,,,,,,,,,,,,,,,,,,,,,a,13.30900002,GRANADA,FALSE,,,,,,,110,berenar,Catalan,Sounds/cat_berenar.mp3,2020-06-13_22h26.53.156,TranslationElicitation_spa,3.2.4,Win32,60,5ee3dcd47bfde60b782a3f3d,,1,0,80,5,1,79
,,,,,,,,,,,,,,,,,,,,,,,,,,,,,,,,,,,return,13.55799985,,FALSE,,,,,,,110,berenar,Catalan,Sounds/cat_berenar.mp3,2020-06-13_22h26.53.156,TranslationElicitation_spa,3.2.4,Win32,60,5ee3dcd47bfde60b782a3f3d,13.55799985,1,0,80,5,1,79
,,,,,,,,,,,,,,,,,,,,,,,,,,,,,,,,,,,,,,,,,,,,,110,berenar,Catalan,Sounds/cat_berenar.mp3,2020-06-13_22h26.53.156,TranslationElicitation_spa,3.2.4,Win32,60,5ee3dcd47bfde60b782a3f3d,,1,0,80,5,1,79
,,,,,,,,,,,,,,,,,,,,,,,,,,,,,,,,,,,h,1.377000093,H,FALSE,,,,,,,188,xocolata,Catalan,Sounds/cat_xocolata.mp3,2020-06-13_22h26.53.156,TranslationElicitation_spa,3.2.4,Win32,60,5ee3dcd47bfde60b782a3f3d,,1,0,80,78,1,79
,,,,,,,,,,,,,,,,,,,,,,,,,,,,,,,,,,,c,2.076999903,HC,FALSE,,,,,,,188,xocolata,Catalan,Sounds/cat_xocolata.mp3,2020-06-13_22h26.53.156,TranslationElicitation_spa,3.2.4,Win32,60,5ee3dcd47bfde60b782a3f3d,,1,0,80,78,1,79
,,,,,,,,,,,,,,,,,,,,,,,,,,,,,,,,,,,backspace,2.796000004,,TRUE,,,,,,,188,xocolata,Catalan,Sounds/cat_xocolata.mp3,2020-06-13_22h26.53.156,TranslationElicitation_spa,3.2.4,Win32,60,5ee3dcd47bfde60b782a3f3d,,1,0,80,78,1,79
