consentKey.keys,consentKey.rt,languageL1Key.keys,languageL1Key.rt,languageL2,languageL2OralKey.keys,languageL2OralKey.rt,languageL2WrittenKey.keys,languageL2WrittenKey.rt,languageL3OralKey.keys,languageL3OralKey.rt,languageL3WrittenKey.keys,languageL3WrittenKey.rt,languageCatalanOralKey.keys,languageCatalanOralKey.rt,languageCatalanWrittenKey.keys,languageCatalanWrittenKey.rt,languageCatalanTimeKey.keys,languageCatalanTimeKey.rt,age,demoSexKey.keys,demoSexKey.rt,demoEducationKey.keys,demoEducationKey.rt,city,demoVisionKey.keys,demoVisionKey.rt,demoLanguageKey.keys,demoLanguageKey.rt,setupLocationKey.keys,setupLocationKey.rt,setupNoiseKey.keys,setupNoiseKey.rt,instructionsKeys.keys,instructionsKeys.rt,keyPressed,keyPressTime,inputText,error,trials_practice.thisRepN,trials_practice.thisTrialN,trials_practice.thisN,trials_practice.thisIndex,trials_practice.ran,trials_practice.order,trial_id,word,test_language,soundfile,date,expName,psychopyVersion,OS,frameRate,participant,trialOffset,trials.thisRepN,trials.thisTrialN,trials.thisN,trials.thisIndex,trials.ran,trials.order
space,3.527999878,e,4.782999754,FRANCÉS,3,11.48399997,4,6.523999929,4,5.55099988,4,2.40899992,3,6.915999889,1,4.174999952,1,11.92499995,19,m,1.99000001,3,8.592000008,LORCA,n,4.204999924,n,2.174000025,1,6.049999952,1,8.904999733,space,15.61199975,l,3.197999954,L,FALSE,1,0,5,1,1,4,147,jaqueta,Catalan,Sounds/cat_jaqueta.mp3,2020-06-13_16h18.19.035,TranslationElicitation_spa,3.2.4,Win32,60,5ee3df5052f1050b1ae6fe50,,,,,,,
,,,,,,,,,,,,,,,,,,,,,,,,,,,,,,,,,,,o,3.53399992,LO,FALSE,1,0,5,1,1,4,147,jaqueta,Catalan,Sounds/cat_jaqueta.mp3,2020-06-13_16h18.19.035,TranslationElicitation_spa,3.2.4,Win32,60,5ee3df5052f1050b1ae6fe50,,,,,,,
,,,,,,,,,,,,,,,,,,,,,,,,,,,,,,,,,,,c,3.697000027,LOC,FALSE,1,0,5,1,1,4,147,jaqueta,Catalan,Sounds/cat_jaqueta.mp3,2020-06-13_16h18.19.035,TranslationElicitation_spa,3.2.4,Win32,60,5ee3df5052f1050b1ae6fe50,,,,,,,
,,,,,,,,,,,,,,,,,,,,,,,,,,,,,,,,,,,o,3.924000025,LOCO,FALSE,1,0,5,1,1,4,147,jaqueta,Catalan,Sounds/cat_jaqueta.mp3,2020-06-13_16h18.19.035,TranslationElicitation_spa,3.2.4,Win32,60,5ee3df5052f1050b1ae6fe50,,,,,,,
,,,,,,,,,,,,,,,,,,,,,,,,,,,,,,,,,,,space,5.083999872,LOCO ,FALSE,1,0,5,1,1,4,147,jaqueta,Catalan,Sounds/cat_jaqueta.mp3,2020-06-13_16h18.19.035,TranslationElicitation_spa,3.2.4,Win32,60,5ee3df5052f1050b1ae6fe50,,,,,,,
,,,,,,,,,,,,,,,,,,,,,,,,,,,,,,,,,,,return,6.22300005,,FALSE,1,0,5,1,1,4,147,jaqueta,Catalan,Sounds/cat_jaqueta.mp3,2020-06-13_16h18.19.035,TranslationElicitation_spa,3.2.4,Win32,60,5ee3df5052f1050b1ae6fe50,6.22300005,,,,,,
,,,,,,,,,,,,,,,,,,,,,,,,,,,,,,,,,,,,,,,1,0,5,1,1,4,147,jaqueta,Catalan,Sounds/cat_jaqueta.mp3,2020-06-13_16h18.19.035,TranslationElicitation_spa,3.2.4,Win32,60,5ee3df5052f1050b1ae6fe50,,,,,,,
,,,,,,,,,,,,,,,,,,,,,,,,,,,,,,,,,,,a,10.73300004,A,FALSE,1,0,5,0,1,4,109,arbre,Catalan,Sounds/cat_arbre.mp3,2020-06-13_16h18.19.035,TranslationElicitation_spa,3.2.4,Win32,60,5ee3df5052f1050b1ae6fe50,,,,,,,
,,,,,,,,,,,,,,,,,,,,,,,,,,,,,,,,,,,r,11.01900005,AR,FALSE,1,0,5,0,1,4,109,arbre,Catalan,Sounds/cat_arbre.mp3,2020-06-13_16h18.19.035,TranslationElicitation_spa,3.2.4,Win32,60,5ee3df5052f1050b1ae6fe50,,,,,,,
,,,,,,,,,,,,,,,,,,,,,,,,,,,,,,,,,,,b,11.60100007,ARB,FALSE,1,0,5,0,1,4,109,arbre,Catalan,Sounds/cat_arbre.mp3,2020-06-13_16h18.19.035,TranslationElicitation_spa,3.2.4,Win32,60,5ee3df5052f1050b1ae6fe50,,,,,,,
,,,,,,,,,,,,,,,,,,,,,,,,,,,,,,,,,,,o,11.68500018,ARBO,FALSE,1,0,5,0,1,4,109,arbre,Catalan,Sounds/cat_arbre.mp3,2020-06-13_16h18.19.035,TranslationElicitation_spa,3.2.4,Win32,60,5ee3df5052f1050b1ae6fe50,,,,,,,
,,,,,,,,,,,,,,,,,,,,,,,,,,,,,,,,,,,l,11.78600001,ARBOL,FALSE,1,0,5,0,1,4,109,arbre,Catalan,Sounds/cat_arbre.mp3,2020-06-13_16h18.19.035,TranslationElicitation_spa,3.2.4,Win32,60,5ee3df5052f1050b1ae6fe50,,,,,,,
,,,,,,,,,,,,,,,,,,,,,,,,,,,,,,,,,,,return,12.03400016,,FALSE,1,0,5,0,1,4,109,arbre,Catalan,Sounds/cat_arbre.mp3,2020-06-13_16h18.19.035,TranslationElicitation_spa,3.2.4,Win32,60,5ee3df5052f1050b1ae6fe50,12.03400016,,,,,,
,,,,,,,,,,,,,,,,,,,,,,,,,,,,,,,,,,,,,,,1,0,5,0,1,4,109,arbre,Catalan,Sounds/cat_arbre.mp3,2020-06-13_16h18.19.035,TranslationElicitation_spa,3.2.4,Win32,60,5ee3df5052f1050b1ae6fe50,,,,,,,
,,,,,,,,,,,,,,,,,,,,,,,,,,,,,,,,,,,i,1.749000072,I,FALSE,1,0,5,3,1,4,167,pingui,Catalan,Sounds/cat_pingui.mp3,2020-06-13_16h18.19.035,TranslationElicitation_spa,3.2.4,Win32,60,5ee3df5052f1050b1ae6fe50,,,,,,,
,,,,,,,,,,,,,,,,,,,,,,,,,,,,,,,,,,,n,1.902000189,IN,FALSE,1,0,5,3,1,4,167,pingui,Catalan,Sounds/cat_pingui.mp3,2020-06-13_16h18.19.035,TranslationElicitation_spa,3.2.4,Win32,60,5ee3df5052f1050b1ae6fe50,,,,,,,
,,,,,,,,,,,,,,,,,,,,,,,,,,,,,,,,,,,g,2.234000206,ING,FALSE,1,0,5,3,1,4,167,pingui,Catalan,Sounds/cat_pingui.mp3,2020-06-13_16h18.19.035,TranslationElicitation_spa,3.2.4,Win32,60,5ee3df5052f1050b1ae6fe50,,,,,,,
,,,,,,,,,,,,,,,,,,,,,,,,,,,,,,,,,,,apostrophe,3.305000067,ING,FALSE,1,0,5,3,1,4,167,pingui,Catalan,Sounds/cat_pingui.mp3,2020-06-13_16h18.19.035,TranslationElicitation_spa,3.2.4,Win32,60,5ee3df5052f1050b1ae6fe50,,,,,,,
,,,,,,,,,,,,,,,,,,,,,,,,,,,,,,,,,,,u,4.160000086,INGÚ,FALSE,1,0,5,3,1,4,167,pingui,Catalan,Sounds/cat_pingui.mp3,2020-06-13_16h18.19.035,TranslationElicitation_spa,3.2.4,Win32,60,5ee3df5052f1050b1ae6fe50,,,,,,,
,,,,,,,,,,,,,,,,,,,,,,,,,,,,,,,,,,,backspace,4.677000046,IN,TRUE,1,0,5,3,1,4,167,pingui,Catalan,Sounds/cat_pingui.mp3,2020-06-13_16h18.19.035,TranslationElicitation_spa,3.2.4,Win32,60,5ee3df5052f1050b1ae6fe50,,,,,,,
,,,,,,,,,,,,,,,,,,,,,,,,,,,,,,,,,,,backspace,4.819000006,,TRUE,1,0,5,3,1,4,167,pingui,Catalan,Sounds/cat_pingui.mp3,2020-06-13_16h18.19.035,TranslationElicitation_spa,3.2.4,Win32,60,5ee3df5052f1050b1ae6fe50,,,,,,,
,,,,,,,,,,,,,,,,,,,,,,,,,,,,,,,,,,,backspace,4.978000164,,TRUE,1,0,5,3,1,4,167,pingui,Catalan,Sounds/cat_pingui.mp3,2020-06-13_16h18.19.035,TranslationElicitation_spa,3.2.4,Win32,60,5ee3df5052f1050b1ae6fe50,,,,,,,
,,,,,,,,,,,,,,,,,,,,,,,,,,,,,,,,,,,p,5.493000031,P,TRUE,1,0,5,3,1,4,167,pingui,Catalan,Sounds/cat_pingui.mp3,2020-06-13_16h18.19.035,TranslationElicitation_spa,3.2.4,Win32,60,5ee3df5052f1050b1ae6fe50,,,,,,,
,,,,,,,,,,,,,,,,,,,,,,,,,,,,,,,,,,,i,5.776000023,PI,TRUE,1,0,5,3,1,4,167,pingui,Catalan,Sounds/cat_pingui.mp3,2020-06-13_16h18.19.035,TranslationElicitation_spa,3.2.4,Win32,60,5ee3df5052f1050b1ae6fe50,,,,,,,
,,,,,,,,,,,,,,,,,,,,,,,,,,,,,,,,,,,n,5.894000053,PIN,TRUE,1,0,5,3,1,4,167,pingui,Catalan,Sounds/cat_pingui.mp3,2020-06-13_16h18.19.035,TranslationElicitation_spa,3.2.4,Win32,60,5ee3df5052f1050b1ae6fe50,,,,,,,
,,,,,,,,,,,,,,,,,,,,,,,,,,,,,,,,,,,g,6.243000031,PING,TRUE,1,0,5,3,1,4,167,pingui,Catalan,Sounds/cat_pingui.mp3,2020-06-13_16h18.19.035,TranslationElicitation_spa,3.2.4,Win32,60,5ee3df5052f1050b1ae6fe50,,,,,,,
,,,,,,,,,,,,,,,,,,,,,,,,,,,,,,,,,,,apostrophe,6.985000134,PING,TRUE,1,0,5,3,1,4,167,pingui,Catalan,Sounds/cat_pingui.mp3,2020-06-13_16h18.19.035,TranslationElicitation_spa,3.2.4,Win32,60,5ee3df5052f1050b1ae6fe50,,,,,,,
,,,,,,,,,,,,,,,,,,,,,,,,,,,,,,,,,,,u,7.294000149,PINGÚ,TRUE,1,0,5,3,1,4,167,pingui,Catalan,Sounds/cat_pingui.mp3,2020-06-13_16h18.19.035,TranslationElicitation_spa,3.2.4,Win32,60,5ee3df5052f1050b1ae6fe50,,,,,,,
,,,,,,,,,,,,,,,,,,,,,,,,,,,,,,,,,,,i,7.443000078,PINGÚI,TRUE,1,0,5,3,1,4,167,pingui,Catalan,Sounds/cat_pingui.mp3,2020-06-13_16h18.19.035,TranslationElicitation_spa,3.2.4,Win32,60,5ee3df5052f1050b1ae6fe50,,,,,,,
,,,,,,,,,,,,,,,,,,,,,,,,,,,,,,,,,,,n,7.626000166,PINGÚIN,TRUE,1,0,5,3,1,4,167,pingui,Catalan,Sounds/cat_pingui.mp3,2020-06-13_16h18.19.035,TranslationElicitation_spa,3.2.4,Win32,60,5ee3df5052f1050b1ae6fe50,,,,,,,
,,,,,,,,,,,,,,,,,,,,,,,,,,,,,,,,,,,o,7.710000038,PINGÚINO,TRUE,1,0,5,3,1,4,167,pingui,Catalan,Sounds/cat_pingui.mp3,2020-06-13_16h18.19.035,TranslationElicitation_spa,3.2.4,Win32,60,5ee3df5052f1050b1ae6fe50,,,,,,,
,,,,,,,,,,,,,,,,,,,,,,,,,,,,,,,,,,,backspace,8.221000195,PINGÚI,TRUE,1,0,5,3,1,4,167,pingui,Catalan,Sounds/cat_pingui.mp3,2020-06-13_16h18.19.035,TranslationElicitation_spa,3.2.4,Win32,60,5ee3df5052f1050b1ae6fe50,,,,,,,
,,,,,,,,,,,,,,,,,,,,,,,,,,,,,,,,,,,backspace,8.372000217,PING,TRUE,1,0,5,3,1,4,167,pingui,Catalan,Sounds/cat_pingui.mp3,2020-06-13_16h18.19.035,TranslationElicitation_spa,3.2.4,Win32,60,5ee3df5052f1050b1ae6fe50,,,,,,,
,,,,,,,,,,,,,,,,,,,,,,,,,,,,,,,,,,,backspace,8.528000116,PI,TRUE,1,0,5,3,1,4,167,pingui,Catalan,Sounds/cat_pingui.mp3,2020-06-13_16h18.19.035,TranslationElicitation_spa,3.2.4,Win32,60,5ee3df5052f1050b1ae6fe50,,,,,,,
,,,,,,,,,,,,,,,,,,,,,,,,,,,,,,,,,,,n,9.583000183,PIN,TRUE,1,0,5,3,1,4,167,pingui,Catalan,Sounds/cat_pingui.mp3,2020-06-13_16h18.19.035,TranslationElicitation_spa,3.2.4,Win32,60,5ee3df5052f1050b1ae6fe50,,,,,,,
,,,,,,,,,,,,,,,,,,,,,,,,,,,,,,,,,,,g,9.732000113,PING,TRUE,1,0,5,3,1,4,167,pingui,Catalan,Sounds/cat_pingui.mp3,2020-06-13_16h18.19.035,TranslationElicitation_spa,3.2.4,Win32,60,5ee3df5052f1050b1ae6fe50,,,,,,,
,,,,,,,,,,,,,,,,,,,,,,,,,,,,,,,,,,,apostrophe,10.40799999,PING,TRUE,1,0,5,3,1,4,167,pingui,Catalan,Sounds/cat_pingui.mp3,2020-06-13_16h18.19.035,TranslationElicitation_spa,3.2.4,Win32,60,5ee3df5052f1050b1ae6fe50,,,,,,,
,,,,,,,,,,,,,,,,,,,,,,,,,,,,,,,,,,,u,11.08400011,PINGÚ,TRUE,1,0,5,3,1,4,167,pingui,Catalan,Sounds/cat_pingui.mp3,2020-06-13_16h18.19.035,TranslationElicitation_spa,3.2.4,Win32,60,5ee3df5052f1050b1ae6fe50,,,,,,,
,,,,,,,,,,,,,,,,,,,,,,,,,,,,,,,,,,,i,11.23400021,PINGÚI,TRUE,1,0,5,3,1,4,167,pingui,Catalan,Sounds/cat_pingui.mp3,2020-06-13_16h18.19.035,TranslationElicitation_spa,3.2.4,Win32,60,5ee3df5052f1050b1ae6fe50,,,,,,,
,,,,,,,,,,,,,,,,,,,,,,,,,,,,,,,,,,,n,11.47900009,PINGÚIN,TRUE,1,0,5,3,1,4,167,pingui,Catalan,Sounds/cat_pingui.mp3,2020-06-13_16h18.19.035,TranslationElicitation_spa,3.2.4,Win32,60,5ee3df5052f1050b1ae6fe50,,,,,,,
,,,,,,,,,,,,,,,,,,,,,,,,,,,,,,,,,,,o,11.602,PINGÚINO,TRUE,1,0,5,3,1,4,167,pingui,Catalan,Sounds/cat_pingui.mp3,2020-06-13_16h18.19.035,TranslationElicitation_spa,3.2.4,Win32,60,5ee3df5052f1050b1ae6fe50,,,,,,,
,,,,,,,,,,,,,,,,,,,,,,,,,,,,,,,,,,,return,12.79500008,,TRUE,1,0,5,3,1,4,167,pingui,Catalan,Sounds/cat_pingui.mp3,2020-06-13_16h18.19.035,TranslationElicitation_spa,3.2.4,Win32,60,5ee3df5052f1050b1ae6fe50,12.79500008,,,,,,
,,,,,,,,,,,,,,,,,,,,,,,,,,,,,,,,,,,,,,,1,0,5,3,1,4,167,pingui,Catalan,Sounds/cat_pingui.mp3,2020-06-13_16h18.19.035,TranslationElicitation_spa,3.2.4,Win32,60,5ee3df5052f1050b1ae6fe50,,,,,,,
,,,,,,,,,,,,,,,,,,,,,,,,,,,,,,,,,,,u,1.686999798,U,FALSE,1,0,5,2,1,4,159,onada,Catalan,Sounds/cat_onada.mp3,2020-06-13_16h18.19.035,TranslationElicitation_spa,3.2.4,Win32,60,5ee3df5052f1050b1ae6fe50,,,,,,,
,,,,,,,,,,,,,,,,,,,,,,,,,,,,,,,,,,,n,1.837999821,UN,FALSE,1,0,5,2,1,4,159,onada,Catalan,Sounds/cat_onada.mp3,2020-06-13_16h18.19.035,TranslationElicitation_spa,3.2.4,Win32,60,5ee3df5052f1050b1ae6fe50,,,,,,,
,,,,,,,,,,,,,,,,,,,,,,,,,,,,,,,,,,,space,2.056999922,UN ,FALSE,1,0,5,2,1,4,159,onada,Catalan,Sounds/cat_onada.mp3,2020-06-13_16h18.19.035,TranslationElicitation_spa,3.2.4,Win32,60,5ee3df5052f1050b1ae6fe50,,,,,,,
,,,,,,,,,,,,,,,,,,,,,,,,,,,,,,,,,,,h,2.281999826,UN H,FALSE,1,0,5,2,1,4,159,onada,Catalan,Sounds/cat_onada.mp3,2020-06-13_16h18.19.035,TranslationElicitation_spa,3.2.4,Win32,60,5ee3df5052f1050b1ae6fe50,,,,,,,
,,,,,,,,,,,,,,,,,,,,,,,,,,,,,,,,,,,a,2.365999937,UN HA,FALSE,1,0,5,2,1,4,159,onada,Catalan,Sounds/cat_onada.mp3,2020-06-13_16h18.19.035,TranslationElicitation_spa,3.2.4,Win32,60,5ee3df5052f1050b1ae6fe50,,,,,,,
,,,,,,,,,,,,,,,,,,,,,,,,,,,,,,,,,,,d,2.520999908,UN HAD,FALSE,1,0,5,2,1,4,159,onada,Catalan,Sounds/cat_onada.mp3,2020-06-13_16h18.19.035,TranslationElicitation_spa,3.2.4,Win32,60,5ee3df5052f1050b1ae6fe50,,,,,,,
,,,,,,,,,,,,,,,,,,,,,,,,,,,,,,,,,,,a,2.648999929,UN HADA,FALSE,1,0,5,2,1,4,159,onada,Catalan,Sounds/cat_onada.mp3,2020-06-13_16h18.19.035,TranslationElicitation_spa,3.2.4,Win32,60,5ee3df5052f1050b1ae6fe50,,,,,,,
,,,,,,,,,,,,,,,,,,,,,,,,,,,,,,,,,,,return,3.626999855,,FALSE,1,0,5,2,1,4,159,onada,Catalan,Sounds/cat_onada.mp3,2020-06-13_16h18.19.035,TranslationElicitation_spa,3.2.4,Win32,60,5ee3df5052f1050b1ae6fe50,3.626999855,,,,,,
,,,,,,,,,,,,,,,,,,,,,,,,,,,,,,,,,,,,,,,1,0,5,2,1,4,159,onada,Catalan,Sounds/cat_onada.mp3,2020-06-13_16h18.19.035,TranslationElicitation_spa,3.2.4,Win32,60,5ee3df5052f1050b1ae6fe50,,,,,,,
,,,,,,,,,,,,,,,,,,,,,,,,,,,,,,,,,,,t,1.470000029,T,FALSE,1,0,5,4,1,4,179,tigre,Catalan,Sounds/cat_tigre.mp3,2020-06-13_16h18.19.035,TranslationElicitation_spa,3.2.4,Win32,60,5ee3df5052f1050b1ae6fe50,,,,,,,
,,,,,,,,,,,,,,,,,,,,,,,,,,,,,,,,,,,i,1.586999893,TI,FALSE,1,0,5,4,1,4,179,tigre,Catalan,Sounds/cat_tigre.mp3,2020-06-13_16h18.19.035,TranslationElicitation_spa,3.2.4,Win32,60,5ee3df5052f1050b1ae6fe50,,,,,,,
,,,,,,,,,,,,,,,,,,,,,,,,,,,,,,,,,,,g,2.114000082,TIG,FALSE,1,0,5,4,1,4,179,tigre,Catalan,Sounds/cat_tigre.mp3,2020-06-13_16h18.19.035,TranslationElicitation_spa,3.2.4,Win32,60,5ee3df5052f1050b1ae6fe50,,,,,,,
,,,,,,,,,,,,,,,,,,,,,,,,,,,,,,,,,,,r,2.230000019,TIGR,FALSE,1,0,5,4,1,4,179,tigre,Catalan,Sounds/cat_tigre.mp3,2020-06-13_16h18.19.035,TranslationElicitation_spa,3.2.4,Win32,60,5ee3df5052f1050b1ae6fe50,,,,,,,
,,,,,,,,,,,,,,,,,,,,,,,,,,,,,,,,,,,e,2.529999971,TIGRE,FALSE,1,0,5,4,1,4,179,tigre,Catalan,Sounds/cat_tigre.mp3,2020-06-13_16h18.19.035,TranslationElicitation_spa,3.2.4,Win32,60,5ee3df5052f1050b1ae6fe50,,,,,,,
,,,,,,,,,,,,,,,,,,,,,,,,,,,,,,,,,,,return,3.181999922,,FALSE,1,0,5,4,1,4,179,tigre,Catalan,Sounds/cat_tigre.mp3,2020-06-13_16h18.19.035,TranslationElicitation_spa,3.2.4,Win32,60,5ee3df5052f1050b1ae6fe50,3.181999922,,,,,,
,,,,,,,,,,,,,,,,,,,,,,,,,,,,,,,,,,,,,,,1,0,5,4,1,4,179,tigre,Catalan,Sounds/cat_tigre.mp3,2020-06-13_16h18.19.035,TranslationElicitation_spa,3.2.4,Win32,60,5ee3df5052f1050b1ae6fe50,,,,,,,
,,,,,,,,,,,,,,,,,,,,,,,,,,,,,,,,,,,v,2.962000132,V,FALSE,,,,,,,112,bici,Catalan,Sounds/cat_bici.mp3,2020-06-13_16h18.19.035,TranslationElicitation_spa,3.2.4,Win32,60,5ee3df5052f1050b1ae6fe50,,1,0,80,7,1,79
,,,,,,,,,,,,,,,,,,,,,,,,,,,,,,,,,,,i,3.512000084,VI,FALSE,,,,,,,112,bici,Catalan,Sounds/cat_bici.mp3,2020-06-13_16h18.19.035,TranslationElicitation_spa,3.2.4,Win32,60,5ee3df5052f1050b1ae6fe50,,1,0,80,7,1,79
,,,,,,,,,,,,,,,,,,,,,,,,,,,,,,,,,,,s,6.986000061,VIS,FALSE,,,,,,,112,bici,Catalan,Sounds/cat_bici.mp3,2020-06-13_16h18.19.035,TranslationElicitation_spa,3.2.4,Win32,60,5ee3df5052f1050b1ae6fe50,,1,0,80,7,1,79
,,,,,,,,,,,,,,,,,,,,,,,,,,,,,,,,,,,backspace,9.854000092,V,TRUE,,,,,,,112,bici,Catalan,Sounds/cat_bici.mp3,2020-06-13_16h18.19.035,TranslationElicitation_spa,3.2.4,Win32,60,5ee3df5052f1050b1ae6fe50,,1,0,80,7,1,79
,,,,,,,,,,,,,,,,,,,,,,,,,,,,,,,,,,,e,12.3130002,VE,TRUE,,,,,,,112,bici,Catalan,Sounds/cat_bici.mp3,2020-06-13_16h18.19.035,TranslationElicitation_spa,3.2.4,Win32,60,5ee3df5052f1050b1ae6fe50,,1,0,80,7,1,79
,,,,,,,,,,,,,,,,,,,,,,,,,,,,,,,,,,,r,12.51100016,VER,TRUE,,,,,,,112,bici,Catalan,Sounds/cat_bici.mp3,2020-06-13_16h18.19.035,TranslationElicitation_spa,3.2.4,Win32,60,5ee3df5052f1050b1ae6fe50,,1,0,80,7,1,79
,,,,,,,,,,,,,,,,,,,,,,,,,,,,,,,,,,,return,13.72399998,,TRUE,,,,,,,112,bici,Catalan,Sounds/cat_bici.mp3,2020-06-13_16h18.19.035,TranslationElicitation_spa,3.2.4,Win32,60,5ee3df5052f1050b1ae6fe50,13.72399998,1,0,80,7,1,79
,,,,,,,,,,,,,,,,,,,,,,,,,,,,,,,,,,,,,,,,,,,,,112,bici,Catalan,Sounds/cat_bici.mp3,2020-06-13_16h18.19.035,TranslationElicitation_spa,3.2.4,Win32,60,5ee3df5052f1050b1ae6fe50,,1,0,80,7,1,79
,,,,,,,,,,,,,,,,,,,,,,,,,,,,,,,,,,,e,1.263000011,E,FALSE,,,,,,,132,estrella,Catalan,Sounds/cat_estrella.mp3,2020-06-13_16h18.19.035,TranslationElicitation_spa,3.2.4,Win32,60,5ee3df5052f1050b1ae6fe50,,1,0,80,27,1,79
,,,,,,,,,,,,,,,,,,,,,,,,,,,,,,,,,,,s,1.381000042,ES,FALSE,,,,,,,132,estrella,Catalan,Sounds/cat_estrella.mp3,2020-06-13_16h18.19.035,TranslationElicitation_spa,3.2.4,Win32,60,5ee3df5052f1050b1ae6fe50,,1,0,80,27,1,79
,,,,,,,,,,,,,,,,,,,,,,,,,,,,,,,,,,,t,1.749000072,EST,FALSE,,,,,,,132,estrella,Catalan,Sounds/cat_estrella.mp3,2020-06-13_16h18.19.035,TranslationElicitation_spa,3.2.4,Win32,60,5ee3df5052f1050b1ae6fe50,,1,0,80,27,1,79
,,,,,,,,,,,,,,,,,,,,,,,,,,,,,,,,,,,r,1.965000153,ESTR,FALSE,,,,,,,132,estrella,Catalan,Sounds/cat_estrella.mp3,2020-06-13_16h18.19.035,TranslationElicitation_spa,3.2.4,Win32,60,5ee3df5052f1050b1ae6fe50,,1,0,80,27,1,79
,,,,,,,,,,,,,,,,,,,,,,,,,,,,,,,,,,,e,2.005000114,ESTRE,FALSE,,,,,,,132,estrella,Catalan,Sounds/cat_estrella.mp3,2020-06-13_16h18.19.035,TranslationElicitation_spa,3.2.4,Win32,60,5ee3df5052f1050b1ae6fe50,,1,0,80,27,1,79
,,,,,,,,,,,,,,,,,,,,,,,,,,,,,,,,,,,l,2.320000172,ESTREL,FALSE,,,,,,,132,estrella,Catalan,Sounds/cat_estrella.mp3,2020-06-13_16h18.19.035,TranslationElicitation_spa,3.2.4,Win32,60,5ee3df5052f1050b1ae6fe50,,1,0,80,27,1,79
,,,,,,,,,,,,,,,,,,,,,,,,,,,,,,,,,,,l,2.871000051,ESTRELL,FALSE,,,,,,,132,estrella,Catalan,Sounds/cat_estrella.mp3,2020-06-13_16h18.19.035,TranslationElicitation_spa,3.2.4,Win32,60,5ee3df5052f1050b1ae6fe50,,1,0,80,27,1,79
,,,,,,,,,,,,,,,,,,,,,,,,,,,,,,,,,,,a,3.009000063,ESTRELLA,FALSE,,,,,,,132,estrella,Catalan,Sounds/cat_estrella.mp3,2020-06-13_16h18.19.035,TranslationElicitation_spa,3.2.4,Win32,60,5ee3df5052f1050b1ae6fe50,,1,0,80,27,1,79
,,,,,,,,,,,,,,,,,,,,,,,,,,,,,,,,,,,return,3.289000034,,FALSE,,,,,,,132,estrella,Catalan,Sounds/cat_estrella.mp3,2020-06-13_16h18.19.035,TranslationElicitation_spa,3.2.4,Win32,60,5ee3df5052f1050b1ae6fe50,3.289000034,1,0,80,27,1,79
,,,,,,,,,,,,,,,,,,,,,,,,,,,,,,,,,,,,,,,,,,,,,132,estrella,Catalan,Sounds/cat_estrella.mp3,2020-06-13_16h18.19.035,TranslationElicitation_spa,3.2.4,Win32,60,5ee3df5052f1050b1ae6fe50,,1,0,80,27,1,79
,,,,,,,,,,,,,,,,,,,,,,,,,,,,,,,,,,,a,12.85899997,A,FALSE,,,,,,,104,abella,Catalan,Sounds/cat_abella.mp3,2020-06-13_16h18.19.035,TranslationElicitation_spa,3.2.4,Win32,60,5ee3df5052f1050b1ae6fe50,,1,0,80,0,1,79
,,,,,,,,,,,,,,,,,,,,,,,,,,,,,,,,,,,r,13.18499994,AR,FALSE,,,,,,,104,abella,Catalan,Sounds/cat_abella.mp3,2020-06-13_16h18.19.035,TranslationElicitation_spa,3.2.4,Win32,60,5ee3df5052f1050b1ae6fe50,,1,0,80,0,1,79
,,,,,,,,,,,,,,,,,,,,,,,,,,,,,,,,,,,a,13.30299997,ARA,FALSE,,,,,,,104,abella,Catalan,Sounds/cat_abella.mp3,2020-06-13_16h18.19.035,TranslationElicitation_spa,3.2.4,Win32,60,5ee3df5052f1050b1ae6fe50,,1,0,80,0,1,79
,,,,,,,,,,,,,,,,,,,,,,,,,,,,,,,,,,,semicolon,13.48000002,ARAÑ,FALSE,,,,,,,104,abella,Catalan,Sounds/cat_abella.mp3,2020-06-13_16h18.19.035,TranslationElicitation_spa,3.2.4,Win32,60,5ee3df5052f1050b1ae6fe50,,1,0,80,0,1,79
,,,,,,,,,,,,,,,,,,,,,,,,,,,,,,,,,,,a,13.58599997,ARAÑA,FALSE,,,,,,,104,abella,Catalan,Sounds/cat_abella.mp3,2020-06-13_16h18.19.035,TranslationElicitation_spa,3.2.4,Win32,60,5ee3df5052f1050b1ae6fe50,,1,0,80,0,1,79
,,,,,,,,,,,,,,,,,,,,,,,,,,,,,,,,,,,return,13.78799987,,FALSE,,,,,,,104,abella,Catalan,Sounds/cat_abella.mp3,2020-06-13_16h18.19.035,TranslationElicitation_spa,3.2.4,Win32,60,5ee3df5052f1050b1ae6fe50,13.78799987,1,0,80,0,1,79
,,,,,,,,,,,,,,,,,,,,,,,,,,,,,,,,,,,,,,,,,,,,,104,abella,Catalan,Sounds/cat_abella.mp3,2020-06-13_16h18.19.035,TranslationElicitation_spa,3.2.4,Win32,60,5ee3df5052f1050b1ae6fe50,,1,0,80,0,1,79
,,,,,,,,,,,,,,,,,,,,,,,,,,,,,,,,,,,p,4.006999969,P,FALSE,,,,,,,115,bolet,Catalan,Sounds/cat_bolet.mp3,2020-06-13_16h18.19.035,TranslationElicitation_spa,3.2.4,Win32,60,5ee3df5052f1050b1ae6fe50,,1,0,80,10,1,79
,,,,,,,,,,,,,,,,,,,,,,,,,,,,,,,,,,,o,4.208999872,PO,FALSE,,,,,,,115,bolet,Catalan,Sounds/cat_bolet.mp3,2020-06-13_16h18.19.035,TranslationElicitation_spa,3.2.4,Win32,60,5ee3df5052f1050b1ae6fe50,,1,0,80,10,1,79
,,,,,,,,,,,,,,,,,,,,,,,,,,,,,,,,,,,l,4.426999807,POL,FALSE,,,,,,,115,bolet,Catalan,Sounds/cat_bolet.mp3,2020-06-13_16h18.19.035,TranslationElicitation_spa,3.2.4,Win32,60,5ee3df5052f1050b1ae6fe50,,1,0,80,10,1,79
,,,,,,,,,,,,,,,,,,,,,,,,,,,,,,,,,,,l,4.836999893,POLL,FALSE,,,,,,,115,bolet,Catalan,Sounds/cat_bolet.mp3,2020-06-13_16h18.19.035,TranslationElicitation_spa,3.2.4,Win32,60,5ee3df5052f1050b1ae6fe50,,1,0,80,10,1,79
,,,,,,,,,,,,,,,,,,,,,,,,,,,,,,,,,,,o,5.095999956,POLLO,FALSE,,,,,,,115,bolet,Catalan,Sounds/cat_bolet.mp3,2020-06-13_16h18.19.035,TranslationElicitation_spa,3.2.4,Win32,60,5ee3df5052f1050b1ae6fe50,,1,0,80,10,1,79
,,,,,,,,,,,,,,,,,,,,,,,,,,,,,,,,,,,return,5.5,,FALSE,,,,,,,115,bolet,Catalan,Sounds/cat_bolet.mp3,2020-06-13_16h18.19.035,TranslationElicitation_spa,3.2.4,Win32,60,5ee3df5052f1050b1ae6fe50,5.5,1,0,80,10,1,79
,,,,,,,,,,,,,,,,,,,,,,,,,,,,,,,,,,,,,,,,,,,,,115,bolet,Catalan,Sounds/cat_bolet.mp3,2020-06-13_16h18.19.035,TranslationElicitation_spa,3.2.4,Win32,60,5ee3df5052f1050b1ae6fe50,,1,0,80,10,1,79
,,,,,,,,,,,,,,,,,,,,,,,,,,,,,,,,,,,m,9.489000082,M,FALSE,,,,,,,153,mico,Catalan,Sounds/cat_mico.mp3,2020-06-13_16h18.19.035,TranslationElicitation_spa,3.2.4,Win32,60,5ee3df5052f1050b1ae6fe50,,1,0,80,47,1,79
,,,,,,,,,,,,,,,,,,,,,,,,,,,,,,,,,,,i,9.588999987,MI,FALSE,,,,,,,153,mico,Catalan,Sounds/cat_mico.mp3,2020-06-13_16h18.19.035,TranslationElicitation_spa,3.2.4,Win32,60,5ee3df5052f1050b1ae6fe50,,1,0,80,47,1,79
,,,,,,,,,,,,,,,,,,,,,,,,,,,,,,,,,,,c,9.823000193,MIC,FALSE,,,,,,,153,mico,Catalan,Sounds/cat_mico.mp3,2020-06-13_16h18.19.035,TranslationElicitation_spa,3.2.4,Win32,60,5ee3df5052f1050b1ae6fe50,,1,0,80,47,1,79
,,,,,,,,,,,,,,,,,,,,,,,,,,,,,,,,,,,u,9.875,MICU,FALSE,,,,,,,153,mico,Catalan,Sounds/cat_mico.mp3,2020-06-13_16h18.19.035,TranslationElicitation_spa,3.2.4,Win32,60,5ee3df5052f1050b1ae6fe50,,1,0,80,47,1,79
,,,,,,,,,,,,,,,,,,,,,,,,,,,,,,,,,,,backspace,11.80000019,MI,TRUE,,,,,,,153,mico,Catalan,Sounds/cat_mico.mp3,2020-06-13_16h18.19.035,TranslationElicitation_spa,3.2.4,Win32,60,5ee3df5052f1050b1ae6fe50,,1,0,80,47,1,79
,,,,,,,,,,,,,,,,,,,,,,,,,,,,,,,,,,,return,13.70000005,,TRUE,,,,,,,153,mico,Catalan,Sounds/cat_mico.mp3,2020-06-13_16h18.19.035,TranslationElicitation_spa,3.2.4,Win32,60,5ee3df5052f1050b1ae6fe50,13.70000005,1,0,80,47,1,79
,,,,,,,,,,,,,,,,,,,,,,,,,,,,,,,,,,,,,,,,,,,,,153,mico,Catalan,Sounds/cat_mico.mp3,2020-06-13_16h18.19.035,TranslationElicitation_spa,3.2.4,Win32,60,5ee3df5052f1050b1ae6fe50,,1,0,80,47,1,79
,,,,,,,,,,,,,,,,,,,,,,,,,,,,,,,,,,,n,2.592999935,N,FALSE,,,,,,,158,nas,Catalan,Sounds/cat_nas.mp3,2020-06-13_16h18.19.035,TranslationElicitation_spa,3.2.4,Win32,60,5ee3df5052f1050b1ae6fe50,,1,0,80,52,1,79
,,,,,,,,,,,,,,,,,,,,,,,,,,,,,,,,,,,a,2.773999929,NA,FALSE,,,,,,,158,nas,Catalan,Sounds/cat_nas.mp3,2020-06-13_16h18.19.035,TranslationElicitation_spa,3.2.4,Win32,60,5ee3df5052f1050b1ae6fe50,,1,0,80,52,1,79
,,,,,,,,,,,,,,,,,,,,,,,,,,,,,,,,,,,d,2.940999985,NAD,FALSE,,,,,,,158,nas,Catalan,Sounds/cat_nas.mp3,2020-06-13_16h18.19.035,TranslationElicitation_spa,3.2.4,Win32,60,5ee3df5052f1050b1ae6fe50,,1,0,80,52,1,79
,,,,,,,,,,,,,,,,,,,,,,,,,,,,,,,,,,,a,3.041999817,NADA,FALSE,,,,,,,158,nas,Catalan,Sounds/cat_nas.mp3,2020-06-13_16h18.19.035,TranslationElicitation_spa,3.2.4,Win32,60,5ee3df5052f1050b1ae6fe50,,1,0,80,52,1,79
,,,,,,,,,,,,,,,,,,,,,,,,,,,,,,,,,,,return,5.536999941,,FALSE,,,,,,,158,nas,Catalan,Sounds/cat_nas.mp3,2020-06-13_16h18.19.035,TranslationElicitation_spa,3.2.4,Win32,60,5ee3df5052f1050b1ae6fe50,5.536999941,1,0,80,52,1,79
,,,,,,,,,,,,,,,,,,,,,,,,,,,,,,,,,,,,,,,,,,,,,158,nas,Catalan,Sounds/cat_nas.mp3,2020-06-13_16h18.19.035,TranslationElicitation_spa,3.2.4,Win32,60,5ee3df5052f1050b1ae6fe50,,1,0,80,52,1,79
,,,,,,,,,,,,,,,,,,,,,,,,,,,,,,,,,,,b,14.99399996,B,FALSE,,,,,,,117,boto,Catalan,Sounds/cat_boto.mp3,2020-06-13_16h18.19.035,TranslationElicitation_spa,3.2.4,Win32,60,5ee3df5052f1050b1ae6fe50,,1,0,80,12,1,79
,,,,,,,,,,,,,,,,,,,,,,,,,,,,,,,,,,,o,15.11899996,BO,FALSE,,,,,,,117,boto,Catalan,Sounds/cat_boto.mp3,2020-06-13_16h18.19.035,TranslationElicitation_spa,3.2.4,Win32,60,5ee3df5052f1050b1ae6fe50,,1,0,80,12,1,79
,,,,,,,,,,,,,,,,,,,,,,,,,,,,,,,,,,,t,15.28399992,BOT,FALSE,,,,,,,117,boto,Catalan,Sounds/cat_boto.mp3,2020-06-13_16h18.19.035,TranslationElicitation_spa,3.2.4,Win32,60,5ee3df5052f1050b1ae6fe50,,1,0,80,12,1,79
,,,,,,,,,,,,,,,,,,,,,,,,,,,,,,,,,,,o,15.38399982,BOTO,FALSE,,,,,,,117,boto,Catalan,Sounds/cat_boto.mp3,2020-06-13_16h18.19.035,TranslationElicitation_spa,3.2.4,Win32,60,5ee3df5052f1050b1ae6fe50,,1,0,80,12,1,79
,,,,,,,,,,,,,,,,,,,,,,,,,,,,,,,,,,,m,15.59899998,BOTOM,FALSE,,,,,,,117,boto,Catalan,Sounds/cat_boto.mp3,2020-06-13_16h18.19.035,TranslationElicitation_spa,3.2.4,Win32,60,5ee3df5052f1050b1ae6fe50,,1,0,80,12,1,79
,,,,,,,,,,,,,,,,,,,,,,,,,,,,,,,,,,,backspace,16.1639998,BOT,TRUE,,,,,,,117,boto,Catalan,Sounds/cat_boto.mp3,2020-06-13_16h18.19.035,TranslationElicitation_spa,3.2.4,Win32,60,5ee3df5052f1050b1ae6fe50,,1,0,80,12,1,79
,,,,,,,,,,,,,,,,,,,,,,,,,,,,,,,,,,,n,16.39999986,BOTN,TRUE,,,,,,,117,boto,Catalan,Sounds/cat_boto.mp3,2020-06-13_16h18.19.035,TranslationElicitation_spa,3.2.4,Win32,60,5ee3df5052f1050b1ae6fe50,,1,0,80,12,1,79
,,,,,,,,,,,,,,,,,,,,,,,,,,,,,,,,,,,backspace,17.4829998,BO,TRUE,,,,,,,117,boto,Catalan,Sounds/cat_boto.mp3,2020-06-13_16h18.19.035,TranslationElicitation_spa,3.2.4,Win32,60,5ee3df5052f1050b1ae6fe50,,1,0,80,12,1,79
,,,,,,,,,,,,,,,,,,,,,,,,,,,,,,,,,,,o,17.81499982,BOO,TRUE,,,,,,,117,boto,Catalan,Sounds/cat_boto.mp3,2020-06-13_16h18.19.035,TranslationElicitation_spa,3.2.4,Win32,60,5ee3df5052f1050b1ae6fe50,,1,0,80,12,1,79
,,,,,,,,,,,,,,,,,,,,,,,,,,,,,,,,,,,n,17.98099995,BOON,TRUE,,,,,,,117,boto,Catalan,Sounds/cat_boto.mp3,2020-06-13_16h18.19.035,TranslationElicitation_spa,3.2.4,Win32,60,5ee3df5052f1050b1ae6fe50,,1,0,80,12,1,79
,,,,,,,,,,,,,,,,,,,,,,,,,,,,,,,,,,,backspace,18.75300002,BO,TRUE,,,,,,,117,boto,Catalan,Sounds/cat_boto.mp3,2020-06-13_16h18.19.035,TranslationElicitation_spa,3.2.4,Win32,60,5ee3df5052f1050b1ae6fe50,,1,0,80,12,1,79
,,,,,,,,,,,,,,,,,,,,,,,,,,,,,,,,,,,backspace,18.92699981,,TRUE,,,,,,,117,boto,Catalan,Sounds/cat_boto.mp3,2020-06-13_16h18.19.035,TranslationElicitation_spa,3.2.4,Win32,60,5ee3df5052f1050b1ae6fe50,,1,0,80,12,1,79
,,,,,,,,,,,,,,,,,,,,,,,,,,,,,,,,,,,b,19.79999995,B,TRUE,,,,,,,117,boto,Catalan,Sounds/cat_boto.mp3,2020-06-13_16h18.19.035,TranslationElicitation_spa,3.2.4,Win32,60,5ee3df5052f1050b1ae6fe50,,1,0,80,12,1,79
,,,,,,,,,,,,,,,,,,,,,,,,,,,,,,,,,,,o,20.03399992,BO,TRUE,,,,,,,117,boto,Catalan,Sounds/cat_boto.mp3,2020-06-13_16h18.19.035,TranslationElicitation_spa,3.2.4,Win32,60,5ee3df5052f1050b1ae6fe50,,1,0,80,12,1,79
,,,,,,,,,,,,,,,,,,,,,,,,,,,,,,,,,,,t,20.2349999,BOT,TRUE,,,,,,,117,boto,Catalan,Sounds/cat_boto.mp3,2020-06-13_16h18.19.035,TranslationElicitation_spa,3.2.4,Win32,60,5ee3df5052f1050b1ae6fe50,,1,0,80,12,1,79
,,,,,,,,,,,,,,,,,,,,,,,,,,,,,,,,,,,o,20.38699985,BOTO,TRUE,,,,,,,117,boto,Catalan,Sounds/cat_boto.mp3,2020-06-13_16h18.19.035,TranslationElicitation_spa,3.2.4,Win32,60,5ee3df5052f1050b1ae6fe50,,1,0,80,12,1,79
,,,,,,,,,,,,,,,,,,,,,,,,,,,,,,,,,,,n,20.77699995,BOTON,TRUE,,,,,,,117,boto,Catalan,Sounds/cat_boto.mp3,2020-06-13_16h18.19.035,TranslationElicitation_spa,3.2.4,Win32,60,5ee3df5052f1050b1ae6fe50,,1,0,80,12,1,79
,,,,,,,,,,,,,,,,,,,,,,,,,,,,,,,,,,,return,21.66799998,,TRUE,,,,,,,117,boto,Catalan,Sounds/cat_boto.mp3,2020-06-13_16h18.19.035,TranslationElicitation_spa,3.2.4,Win32,60,5ee3df5052f1050b1ae6fe50,21.66799998,1,0,80,12,1,79
,,,,,,,,,,,,,,,,,,,,,,,,,,,,,,,,,,,,,,,,,,,,,117,boto,Catalan,Sounds/cat_boto.mp3,2020-06-13_16h18.19.035,TranslationElicitation_spa,3.2.4,Win32,60,5ee3df5052f1050b1ae6fe50,,1,0,80,12,1,79
,,,,,,,,,,,,,,,,,,,,,,,,,,,,,,,,,,,f,1.532999992,F,FALSE,,,,,,,137,fulla,Catalan,Sounds/cat_fulla.mp3,2020-06-13_16h18.19.035,TranslationElicitation_spa,3.2.4,Win32,60,5ee3df5052f1050b1ae6fe50,,1,0,80,32,1,79
,,,,,,,,,,,,,,,,,,,,,,,,,,,,,,,,,,,u,1.68200016,FU,FALSE,,,,,,,137,fulla,Catalan,Sounds/cat_fulla.mp3,2020-06-13_16h18.19.035,TranslationElicitation_spa,3.2.4,Win32,60,5ee3df5052f1050b1ae6fe50,,1,0,80,32,1,79
,,,,,,,,,,,,,,,,,,,,,,,,,,,,,,,,,,,r,1.847000122,FUR,FALSE,,,,,,,137,fulla,Catalan,Sounds/cat_fulla.mp3,2020-06-13_16h18.19.035,TranslationElicitation_spa,3.2.4,Win32,60,5ee3df5052f1050b1ae6fe50,,1,0,80,32,1,79
,,,,,,,,,,,,,,,,,,,,,,,,,,,,,,,,,,,i,2.180000067,FURI,FALSE,,,,,,,137,fulla,Catalan,Sounds/cat_fulla.mp3,2020-06-13_16h18.19.035,TranslationElicitation_spa,3.2.4,Win32,60,5ee3df5052f1050b1ae6fe50,,1,0,80,32,1,79
,,,,,,,,,,,,,,,,,,,,,,,,,,,,,,,,,,,a,2.318000078,FURIA,FALSE,,,,,,,137,fulla,Catalan,Sounds/cat_fulla.mp3,2020-06-13_16h18.19.035,TranslationElicitation_spa,3.2.4,Win32,60,5ee3df5052f1050b1ae6fe50,,1,0,80,32,1,79
,,,,,,,,,,,,,,,,,,,,,,,,,,,,,,,,,,,return,2.759000063,,FALSE,,,,,,,137,fulla,Catalan,Sounds/cat_fulla.mp3,2020-06-13_16h18.19.035,TranslationElicitation_spa,3.2.4,Win32,60,5ee3df5052f1050b1ae6fe50,2.758000135,1,0,80,32,1,79
,,,,,,,,,,,,,,,,,,,,,,,,,,,,,,,,,,,,,,,,,,,,,137,fulla,Catalan,Sounds/cat_fulla.mp3,2020-06-13_16h18.19.035,TranslationElicitation_spa,3.2.4,Win32,60,5ee3df5052f1050b1ae6fe50,,1,0,80,32,1,79
,,,,,,,,,,,,,,,,,,,,,,,,,,,,,,,,,,,c,1.413999796,C,FALSE,,,,,,,189,zebra,Catalan,Sounds/cat_zebra.mp3,2020-06-13_16h18.19.035,TranslationElicitation_spa,3.2.4,Win32,60,5ee3df5052f1050b1ae6fe50,,1,0,80,79,1,79
,,,,,,,,,,,,,,,,,,,,,,,,,,,,,,,,,,,e,1.865999937,CE,FALSE,,,,,,,189,zebra,Catalan,Sounds/cat_zebra.mp3,2020-06-13_16h18.19.035,TranslationElicitation_spa,3.2.4,Win32,60,5ee3df5052f1050b1ae6fe50,,1,0,80,79,1,79
,,,,,,,,,,,,,,,,,,,,,,,,,,,,,,,,,,,b,2.029999971,CEB,FALSE,,,,,,,189,zebra,Catalan,Sounds/cat_zebra.mp3,2020-06-13_16h18.19.035,TranslationElicitation_spa,3.2.4,Win32,60,5ee3df5052f1050b1ae6fe50,,1,0,80,79,1,79
,,,,,,,,,,,,,,,,,,,,,,,,,,,,,,,,,,,r,2.245999813,CEBR,FALSE,,,,,,,189,zebra,Catalan,Sounds/cat_zebra.mp3,2020-06-13_16h18.19.035,TranslationElicitation_spa,3.2.4,Win32,60,5ee3df5052f1050b1ae6fe50,,1,0,80,79,1,79
,,,,,,,,,,,,,,,,,,,,,,,,,,,,,,,,,,,a,2.381999969,CEBRA,FALSE,,,,,,,189,zebra,Catalan,Sounds/cat_zebra.mp3,2020-06-13_16h18.19.035,TranslationElicitation_spa,3.2.4,Win32,60,5ee3df5052f1050b1ae6fe50,,1,0,80,79,1,79
,,,,,,,,,,,,,,,,,,,,,,,,,,,,,,,,,,,return,3.281999826,,FALSE,,,,,,,189,zebra,Catalan,Sounds/cat_zebra.mp3,2020-06-13_16h18.19.035,TranslationElicitation_spa,3.2.4,Win32,60,5ee3df5052f1050b1ae6fe50,3.281999826,1,0,80,79,1,79
,,,,,,,,,,,,,,,,,,,,,,,,,,,,,,,,,,,,,,,,,,,,,189,zebra,Catalan,Sounds/cat_zebra.mp3,2020-06-13_16h18.19.035,TranslationElicitation_spa,3.2.4,Win32,60,5ee3df5052f1050b1ae6fe50,,1,0,80,79,1,79
,,,,,,,,,,,,,,,,,,,,,,,,,,,,,,,,,,,l,2.734000206,L,FALSE,,,,,,,151,lluna,Catalan,Sounds/cat_lluna.mp3,2020-06-13_16h18.19.035,TranslationElicitation_spa,3.2.4,Win32,60,5ee3df5052f1050b1ae6fe50,,1,0,80,45,1,79
,,,,,,,,,,,,,,,,,,,,,,,,,,,,,,,,,,,u,3.011000156,LU,FALSE,,,,,,,151,lluna,Catalan,Sounds/cat_lluna.mp3,2020-06-13_16h18.19.035,TranslationElicitation_spa,3.2.4,Win32,60,5ee3df5052f1050b1ae6fe50,,1,0,80,45,1,79
,,,,,,,,,,,,,,,,,,,,,,,,,,,,,,,,,,,n,3.142000198,LUN,FALSE,,,,,,,151,lluna,Catalan,Sounds/cat_lluna.mp3,2020-06-13_16h18.19.035,TranslationElicitation_spa,3.2.4,Win32,60,5ee3df5052f1050b1ae6fe50,,1,0,80,45,1,79
,,,,,,,,,,,,,,,,,,,,,,,,,,,,,,,,,,,a,3.217000008,LUNA,FALSE,,,,,,,151,lluna,Catalan,Sounds/cat_lluna.mp3,2020-06-13_16h18.19.035,TranslationElicitation_spa,3.2.4,Win32,60,5ee3df5052f1050b1ae6fe50,,1,0,80,45,1,79
,,,,,,,,,,,,,,,,,,,,,,,,,,,,,,,,,,,return,3.60800004,,FALSE,,,,,,,151,lluna,Catalan,Sounds/cat_lluna.mp3,2020-06-13_16h18.19.035,TranslationElicitation_spa,3.2.4,Win32,60,5ee3df5052f1050b1ae6fe50,3.60800004,1,0,80,45,1,79
,,,,,,,,,,,,,,,,,,,,,,,,,,,,,,,,,,,,,,,,,,,,,151,lluna,Catalan,Sounds/cat_lluna.mp3,2020-06-13_16h18.19.035,TranslationElicitation_spa,3.2.4,Win32,60,5ee3df5052f1050b1ae6fe50,,1,0,80,45,1,79
,,,,,,,,,,,,,,,,,,,,,,,,,,,,,,,,,,,a,1.069999933,A,FALSE,,,,,,,139,galleda,Catalan,Sounds/cat_galleda.mp3,2020-06-13_16h18.19.035,TranslationElicitation_spa,3.2.4,Win32,60,5ee3df5052f1050b1ae6fe50,,1,0,80,34,1,79
,,,,,,,,,,,,,,,,,,,,,,,,,,,,,,,,,,,l,1.28399992,AL,FALSE,,,,,,,139,galleda,Catalan,Sounds/cat_galleda.mp3,2020-06-13_16h18.19.035,TranslationElicitation_spa,3.2.4,Win32,60,5ee3df5052f1050b1ae6fe50,,1,0,80,34,1,79
,,,,,,,,,,,,,,,,,,,,,,,,,,,,,,,,,,,l,1.427000046,ALL,FALSE,,,,,,,139,galleda,Catalan,Sounds/cat_galleda.mp3,2020-06-13_16h18.19.035,TranslationElicitation_spa,3.2.4,Win32,60,5ee3df5052f1050b1ae6fe50,,1,0,80,34,1,79
,,,,,,,,,,,,,,,,,,,,,,,,,,,,,,,,,,,e,1.49000001,ALLE,FALSE,,,,,,,139,galleda,Catalan,Sounds/cat_galleda.mp3,2020-06-13_16h18.19.035,TranslationElicitation_spa,3.2.4,Win32,60,5ee3df5052f1050b1ae6fe50,,1,0,80,34,1,79
,,,,,,,,,,,,,,,,,,,,,,,,,,,,,,,,,,,t,1.722000122,ALLET,FALSE,,,,,,,139,galleda,Catalan,Sounds/cat_galleda.mp3,2020-06-13_16h18.19.035,TranslationElicitation_spa,3.2.4,Win32,60,5ee3df5052f1050b1ae6fe50,,1,0,80,34,1,79
,,,,,,,,,,,,,,,,,,,,,,,,,,,,,,,,,,,backspace,2.085000038,ALL,TRUE,,,,,,,139,galleda,Catalan,Sounds/cat_galleda.mp3,2020-06-13_16h18.19.035,TranslationElicitation_spa,3.2.4,Win32,60,5ee3df5052f1050b1ae6fe50,,1,0,80,34,1,79
,,,,,,,,,,,,,,,,,,,,,,,,,,,,,,,,,,,backspace,2.252000093,A,TRUE,,,,,,,139,galleda,Catalan,Sounds/cat_galleda.mp3,2020-06-13_16h18.19.035,TranslationElicitation_spa,3.2.4,Win32,60,5ee3df5052f1050b1ae6fe50,,1,0,80,34,1,79
,,,,,,,,,,,,,,,,,,,,,,,,,,,,,,,,,,,backspace,2.397000074,,TRUE,,,,,,,139,galleda,Catalan,Sounds/cat_galleda.mp3,2020-06-13_16h18.19.035,TranslationElicitation_spa,3.2.4,Win32,60,5ee3df5052f1050b1ae6fe50,,1,0,80,34,1,79
,,,,,,,,,,,,,,,,,,,,,,,,,,,,,,,,,,,g,3.085999966,G,TRUE,,,,,,,139,galleda,Catalan,Sounds/cat_galleda.mp3,2020-06-13_16h18.19.035,TranslationElicitation_spa,3.2.4,Win32,60,5ee3df5052f1050b1ae6fe50,,1,0,80,34,1,79
,,,,,,,,,,,,,,,,,,,,,,,,,,,,,,,,,,,a,3.246999979,GA,TRUE,,,,,,,139,galleda,Catalan,Sounds/cat_galleda.mp3,2020-06-13_16h18.19.035,TranslationElicitation_spa,3.2.4,Win32,60,5ee3df5052f1050b1ae6fe50,,1,0,80,34,1,79
,,,,,,,,,,,,,,,,,,,,,,,,,,,,,,,,,,,l,3.536999941,GAL,TRUE,,,,,,,139,galleda,Catalan,Sounds/cat_galleda.mp3,2020-06-13_16h18.19.035,TranslationElicitation_spa,3.2.4,Win32,60,5ee3df5052f1050b1ae6fe50,,1,0,80,34,1,79
,,,,,,,,,,,,,,,,,,,,,,,,,,,,,,,,,,,l,3.702000141,GALL,TRUE,,,,,,,139,galleda,Catalan,Sounds/cat_galleda.mp3,2020-06-13_16h18.19.035,TranslationElicitation_spa,3.2.4,Win32,60,5ee3df5052f1050b1ae6fe50,,1,0,80,34,1,79
,,,,,,,,,,,,,,,,,,,,,,,,,,,,,,,,,,,e,3.815999985,GALLE,TRUE,,,,,,,139,galleda,Catalan,Sounds/cat_galleda.mp3,2020-06-13_16h18.19.035,TranslationElicitation_spa,3.2.4,Win32,60,5ee3df5052f1050b1ae6fe50,,1,0,80,34,1,79
,,,,,,,,,,,,,,,,,,,,,,,,,,,,,,,,,,,t,3.989000082,GALLET,TRUE,,,,,,,139,galleda,Catalan,Sounds/cat_galleda.mp3,2020-06-13_16h18.19.035,TranslationElicitation_spa,3.2.4,Win32,60,5ee3df5052f1050b1ae6fe50,,1,0,80,34,1,79
,,,,,,,,,,,,,,,,,,,,,,,,,,,,,,,,,,,a,4.171000004,GALLETA,TRUE,,,,,,,139,galleda,Catalan,Sounds/cat_galleda.mp3,2020-06-13_16h18.19.035,TranslationElicitation_spa,3.2.4,Win32,60,5ee3df5052f1050b1ae6fe50,,1,0,80,34,1,79
,,,,,,,,,,,,,,,,,,,,,,,,,,,,,,,,,,,return,4.506999969,,TRUE,,,,,,,139,galleda,Catalan,Sounds/cat_galleda.mp3,2020-06-13_16h18.19.035,TranslationElicitation_spa,3.2.4,Win32,60,5ee3df5052f1050b1ae6fe50,4.506999969,1,0,80,34,1,79
,,,,,,,,,,,,,,,,,,,,,,,,,,,,,,,,,,,,,,,,,,,,,139,galleda,Catalan,Sounds/cat_galleda.mp3,2020-06-13_16h18.19.035,TranslationElicitation_spa,3.2.4,Win32,60,5ee3df5052f1050b1ae6fe50,,1,0,80,34,1,79
,,,,,,,,,,,,,,,,,,,,,,,,,,,,,,,,,,,m,1.56799984,M,FALSE,,,,,,,154,mirall,Catalan,Sounds/cat_mirall.mp3,2020-06-13_16h18.19.035,TranslationElicitation_spa,3.2.4,Win32,60,5ee3df5052f1050b1ae6fe50,,1,0,80,48,1,79
,,,,,,,,,,,,,,,,,,,,,,,,,,,,,,,,,,,i,1.682999849,MI,FALSE,,,,,,,154,mirall,Catalan,Sounds/cat_mirall.mp3,2020-06-13_16h18.19.035,TranslationElicitation_spa,3.2.4,Win32,60,5ee3df5052f1050b1ae6fe50,,1,0,80,48,1,79
,,,,,,,,,,,,,,,,,,,,,,,,,,,,,,,,,,,r,1.90199995,MIR,FALSE,,,,,,,154,mirall,Catalan,Sounds/cat_mirall.mp3,2020-06-13_16h18.19.035,TranslationElicitation_spa,3.2.4,Win32,60,5ee3df5052f1050b1ae6fe50,,1,0,80,48,1,79
,,,,,,,,,,,,,,,,,,,,,,,,,,,,,,,,,,,a,2.06799984,MIRA,FALSE,,,,,,,154,mirall,Catalan,Sounds/cat_mirall.mp3,2020-06-13_16h18.19.035,TranslationElicitation_spa,3.2.4,Win32,60,5ee3df5052f1050b1ae6fe50,,1,0,80,48,1,79
,,,,,,,,,,,,,,,,,,,,,,,,,,,,,,,,,,,d,3.671000004,MIRAD,FALSE,,,,,,,154,mirall,Catalan,Sounds/cat_mirall.mp3,2020-06-13_16h18.19.035,TranslationElicitation_spa,3.2.4,Win32,60,5ee3df5052f1050b1ae6fe50,,1,0,80,48,1,79
,,,,,,,,,,,,,,,,,,,,,,,,,,,,,,,,,,,return,4.117999792,,FALSE,,,,,,,154,mirall,Catalan,Sounds/cat_mirall.mp3,2020-06-13_16h18.19.035,TranslationElicitation_spa,3.2.4,Win32,60,5ee3df5052f1050b1ae6fe50,4.117999792,1,0,80,48,1,79
,,,,,,,,,,,,,,,,,,,,,,,,,,,,,,,,,,,,,,,,,,,,,154,mirall,Catalan,Sounds/cat_mirall.mp3,2020-06-13_16h18.19.035,TranslationElicitation_spa,3.2.4,Win32,60,5ee3df5052f1050b1ae6fe50,,1,0,80,48,1,79
,,,,,,,,,,,,,,,,,,,,,,,,,,,,,,,,,,,a,2.546999931,A,FALSE,,,,,,,133,estruc,Catalan,Sounds/cat_estruc.mp3,2020-06-13_16h18.19.035,TranslationElicitation_spa,3.2.4,Win32,60,5ee3df5052f1050b1ae6fe50,,1,0,80,28,1,79
,,,,,,,,,,,,,,,,,,,,,,,,,,,,,,,,,,,s,2.691999912,AS,FALSE,,,,,,,133,estruc,Catalan,Sounds/cat_estruc.mp3,2020-06-13_16h18.19.035,TranslationElicitation_spa,3.2.4,Win32,60,5ee3df5052f1050b1ae6fe50,,1,0,80,28,1,79
,,,,,,,,,,,,,,,,,,,,,,,,,,,,,,,,,,,t,2.993000031,AST,FALSE,,,,,,,133,estruc,Catalan,Sounds/cat_estruc.mp3,2020-06-13_16h18.19.035,TranslationElicitation_spa,3.2.4,Win32,60,5ee3df5052f1050b1ae6fe50,,1,0,80,28,1,79
,,,,,,,,,,,,,,,,,,,,,,,,,,,,,,,,,,,r,3.126999855,ASTR,FALSE,,,,,,,133,estruc,Catalan,Sounds/cat_estruc.mp3,2020-06-13_16h18.19.035,TranslationElicitation_spa,3.2.4,Win32,60,5ee3df5052f1050b1ae6fe50,,1,0,80,28,1,79
,,,,,,,,,,,,,,,,,,,,,,,,,,,,,,,,,,,o,3.243000031,ASTRO,FALSE,,,,,,,133,estruc,Catalan,Sounds/cat_estruc.mp3,2020-06-13_16h18.19.035,TranslationElicitation_spa,3.2.4,Win32,60,5ee3df5052f1050b1ae6fe50,,1,0,80,28,1,79
,,,,,,,,,,,,,,,,,,,,,,,,,,,,,,,,,,,s,3.392999887,ASTROS,FALSE,,,,,,,133,estruc,Catalan,Sounds/cat_estruc.mp3,2020-06-13_16h18.19.035,TranslationElicitation_spa,3.2.4,Win32,60,5ee3df5052f1050b1ae6fe50,,1,0,80,28,1,79
,,,,,,,,,,,,,,,,,,,,,,,,,,,,,,,,,,,return,3.609999895,,FALSE,,,,,,,133,estruc,Catalan,Sounds/cat_estruc.mp3,2020-06-13_16h18.19.035,TranslationElicitation_spa,3.2.4,Win32,60,5ee3df5052f1050b1ae6fe50,3.609999895,1,0,80,28,1,79
,,,,,,,,,,,,,,,,,,,,,,,,,,,,,,,,,,,,,,,,,,,,,133,estruc,Catalan,Sounds/cat_estruc.mp3,2020-06-13_16h18.19.035,TranslationElicitation_spa,3.2.4,Win32,60,5ee3df5052f1050b1ae6fe50,,1,0,80,28,1,79
,,,,,,,,,,,,,,,,,,,,,,,,,,,,,,,,,,,s,1.986999989,S,FALSE,,,,,,,157,mussol,Catalan,Sounds/cat_mussol.mp3,2020-06-13_16h18.19.035,TranslationElicitation_spa,3.2.4,Win32,60,5ee3df5052f1050b1ae6fe50,,1,0,80,51,1,79
,,,,,,,,,,,,,,,,,,,,,,,,,,,,,,,,,,,o,2.136999846,SO,FALSE,,,,,,,157,mussol,Catalan,Sounds/cat_mussol.mp3,2020-06-13_16h18.19.035,TranslationElicitation_spa,3.2.4,Win32,60,5ee3df5052f1050b1ae6fe50,,1,0,80,51,1,79
,,,,,,,,,,,,,,,,,,,,,,,,,,,,,,,,,,,l,2.287999868,SOL,FALSE,,,,,,,157,mussol,Catalan,Sounds/cat_mussol.mp3,2020-06-13_16h18.19.035,TranslationElicitation_spa,3.2.4,Win32,60,5ee3df5052f1050b1ae6fe50,,1,0,80,51,1,79
,,,,,,,,,,,,,,,,,,,,,,,,,,,,,,,,,,,backspace,2.636999846,S,TRUE,,,,,,,157,mussol,Catalan,Sounds/cat_mussol.mp3,2020-06-13_16h18.19.035,TranslationElicitation_spa,3.2.4,Win32,60,5ee3df5052f1050b1ae6fe50,,1,0,80,51,1,79
,,,,,,,,,,,,,,,,,,,,,,,,,,,,,,,,,,,backspace,2.802000046,,TRUE,,,,,,,157,mussol,Catalan,Sounds/cat_mussol.mp3,2020-06-13_16h18.19.035,TranslationElicitation_spa,3.2.4,Win32,60,5ee3df5052f1050b1ae6fe50,,1,0,80,51,1,79
,,,,,,,,,,,,,,,,,,,,,,,,,,,,,,,,,,,e,3.302000046,E,TRUE,,,,,,,157,mussol,Catalan,Sounds/cat_mussol.mp3,2020-06-13_16h18.19.035,TranslationElicitation_spa,3.2.4,Win32,60,5ee3df5052f1050b1ae6fe50,,1,0,80,51,1,79
,,,,,,,,,,,,,,,,,,,,,,,,,,,,,,,,,,,l,3.421999931,EL,TRUE,,,,,,,157,mussol,Catalan,Sounds/cat_mussol.mp3,2020-06-13_16h18.19.035,TranslationElicitation_spa,3.2.4,Win32,60,5ee3df5052f1050b1ae6fe50,,1,0,80,51,1,79
,,,,,,,,,,,,,,,,,,,,,,,,,,,,,,,,,,,space,3.631000042,EL ,TRUE,,,,,,,157,mussol,Catalan,Sounds/cat_mussol.mp3,2020-06-13_16h18.19.035,TranslationElicitation_spa,3.2.4,Win32,60,5ee3df5052f1050b1ae6fe50,,1,0,80,51,1,79
,,,,,,,,,,,,,,,,,,,,,,,,,,,,,,,,,,,s,3.687999964,EL S,TRUE,,,,,,,157,mussol,Catalan,Sounds/cat_mussol.mp3,2020-06-13_16h18.19.035,TranslationElicitation_spa,3.2.4,Win32,60,5ee3df5052f1050b1ae6fe50,,1,0,80,51,1,79
,,,,,,,,,,,,,,,,,,,,,,,,,,,,,,,,,,,o,3.769000053,EL SO,TRUE,,,,,,,157,mussol,Catalan,Sounds/cat_mussol.mp3,2020-06-13_16h18.19.035,TranslationElicitation_spa,3.2.4,Win32,60,5ee3df5052f1050b1ae6fe50,,1,0,80,51,1,79
,,,,,,,,,,,,,,,,,,,,,,,,,,,,,,,,,,,l,3.911000013,EL SOL,TRUE,,,,,,,157,mussol,Catalan,Sounds/cat_mussol.mp3,2020-06-13_16h18.19.035,TranslationElicitation_spa,3.2.4,Win32,60,5ee3df5052f1050b1ae6fe50,,1,0,80,51,1,79
,,,,,,,,,,,,,,,,,,,,,,,,,,,,,,,,,,,return,4.218999863,,TRUE,,,,,,,157,mussol,Catalan,Sounds/cat_mussol.mp3,2020-06-13_16h18.19.035,TranslationElicitation_spa,3.2.4,Win32,60,5ee3df5052f1050b1ae6fe50,4.218999863,1,0,80,51,1,79
,,,,,,,,,,,,,,,,,,,,,,,,,,,,,,,,,,,,,,,,,,,,,157,mussol,Catalan,Sounds/cat_mussol.mp3,2020-06-13_16h18.19.035,TranslationElicitation_spa,3.2.4,Win32,60,5ee3df5052f1050b1ae6fe50,,1,0,80,51,1,79
,,,,,,,,,,,,,,,,,,,,,,,,,,,,,,,,,,,p,2.089999914,P,FALSE,,,,,,,168,planta,Catalan,Sounds/cat_planta.mp3,2020-06-13_16h18.19.035,TranslationElicitation_spa,3.2.4,Win32,60,5ee3df5052f1050b1ae6fe50,,1,0,80,60,1,79
,,,,,,,,,,,,,,,,,,,,,,,,,,,,,,,,,,,l,2.22300005,PL,FALSE,,,,,,,168,planta,Catalan,Sounds/cat_planta.mp3,2020-06-13_16h18.19.035,TranslationElicitation_spa,3.2.4,Win32,60,5ee3df5052f1050b1ae6fe50,,1,0,80,60,1,79
,,,,,,,,,,,,,,,,,,,,,,,,,,,,,,,,,,,a,2.371999979,PLA,FALSE,,,,,,,168,planta,Catalan,Sounds/cat_planta.mp3,2020-06-13_16h18.19.035,TranslationElicitation_spa,3.2.4,Win32,60,5ee3df5052f1050b1ae6fe50,,1,0,80,60,1,79
,,,,,,,,,,,,,,,,,,,,,,,,,,,,,,,,,,,n,2.562999964,PLAN,FALSE,,,,,,,168,planta,Catalan,Sounds/cat_planta.mp3,2020-06-13_16h18.19.035,TranslationElicitation_spa,3.2.4,Win32,60,5ee3df5052f1050b1ae6fe50,,1,0,80,60,1,79
,,,,,,,,,,,,,,,,,,,,,,,,,,,,,,,,,,,t,2.708999872,PLANT,FALSE,,,,,,,168,planta,Catalan,Sounds/cat_planta.mp3,2020-06-13_16h18.19.035,TranslationElicitation_spa,3.2.4,Win32,60,5ee3df5052f1050b1ae6fe50,,1,0,80,60,1,79
,,,,,,,,,,,,,,,,,,,,,,,,,,,,,,,,,,,a,2.937999964,PLANTA,FALSE,,,,,,,168,planta,Catalan,Sounds/cat_planta.mp3,2020-06-13_16h18.19.035,TranslationElicitation_spa,3.2.4,Win32,60,5ee3df5052f1050b1ae6fe50,,1,0,80,60,1,79
,,,,,,,,,,,,,,,,,,,,,,,,,,,,,,,,,,,return,3.89199996,,FALSE,,,,,,,168,planta,Catalan,Sounds/cat_planta.mp3,2020-06-13_16h18.19.035,TranslationElicitation_spa,3.2.4,Win32,60,5ee3df5052f1050b1ae6fe50,3.89199996,1,0,80,60,1,79
,,,,,,,,,,,,,,,,,,,,,,,,,,,,,,,,,,,,,,,,,,,,,168,planta,Catalan,Sounds/cat_planta.mp3,2020-06-13_16h18.19.035,TranslationElicitation_spa,3.2.4,Win32,60,5ee3df5052f1050b1ae6fe50,,1,0,80,60,1,79
,,,,,,,,,,,,,,,,,,,,,,,,,,,,,,,,,,,j,1.342000008,J,FALSE,,,,,,,142,girafa,Catalan,Sounds/cat_girafa.mp3,2020-06-13_16h18.19.035,TranslationElicitation_spa,3.2.4,Win32,60,5ee3df5052f1050b1ae6fe50,,1,0,80,37,1,79
,,,,,,,,,,,,,,,,,,,,,,,,,,,,,,,,,,,u,1.450999975,JU,FALSE,,,,,,,142,girafa,Catalan,Sounds/cat_girafa.mp3,2020-06-13_16h18.19.035,TranslationElicitation_spa,3.2.4,Win32,60,5ee3df5052f1050b1ae6fe50,,1,0,80,37,1,79
,,,,,,,,,,,,,,,,,,,,,,,,,,,,,,,,,,,r,2.029999971,JUR,FALSE,,,,,,,142,girafa,Catalan,Sounds/cat_girafa.mp3,2020-06-13_16h18.19.035,TranslationElicitation_spa,3.2.4,Win32,60,5ee3df5052f1050b1ae6fe50,,1,0,80,37,1,79
,,,,,,,,,,,,,,,,,,,,,,,,,,,,,,,,,,,backspace,2.915999889,J,TRUE,,,,,,,142,girafa,Catalan,Sounds/cat_girafa.mp3,2020-06-13_16h18.19.035,TranslationElicitation_spa,3.2.4,Win32,60,5ee3df5052f1050b1ae6fe50,,1,0,80,37,1,79
,,,,,,,,,,,,,,,,,,,,,,,,,,,,,,,,,,,backspace,3.046000004,,TRUE,,,,,,,142,girafa,Catalan,Sounds/cat_girafa.mp3,2020-06-13_16h18.19.035,TranslationElicitation_spa,3.2.4,Win32,60,5ee3df5052f1050b1ae6fe50,,1,0,80,37,1,79
,,,,,,,,,,,,,,,,,,,,,,,,,,,,,,,,,,,j,4,J,TRUE,,,,,,,142,girafa,Catalan,Sounds/cat_girafa.mp3,2020-06-13_16h18.19.035,TranslationElicitation_spa,3.2.4,Win32,60,5ee3df5052f1050b1ae6fe50,,1,0,80,37,1,79
,,,,,,,,,,,,,,,,,,,,,,,,,,,,,,,,,,,i,4.095000029,JI,TRUE,,,,,,,142,girafa,Catalan,Sounds/cat_girafa.mp3,2020-06-13_16h18.19.035,TranslationElicitation_spa,3.2.4,Win32,60,5ee3df5052f1050b1ae6fe50,,1,0,80,37,1,79
,,,,,,,,,,,,,,,,,,,,,,,,,,,,,,,,,,,r,4.349999905,JIR,TRUE,,,,,,,142,girafa,Catalan,Sounds/cat_girafa.mp3,2020-06-13_16h18.19.035,TranslationElicitation_spa,3.2.4,Win32,60,5ee3df5052f1050b1ae6fe50,,1,0,80,37,1,79
,,,,,,,,,,,,,,,,,,,,,,,,,,,,,,,,,,,a,4.532999992,JIRA,TRUE,,,,,,,142,girafa,Catalan,Sounds/cat_girafa.mp3,2020-06-13_16h18.19.035,TranslationElicitation_spa,3.2.4,Win32,60,5ee3df5052f1050b1ae6fe50,,1,0,80,37,1,79
,,,,,,,,,,,,,,,,,,,,,,,,,,,,,,,,,,,g,4.750999928,JIRAG,TRUE,,,,,,,142,girafa,Catalan,Sounds/cat_girafa.mp3,2020-06-13_16h18.19.035,TranslationElicitation_spa,3.2.4,Win32,60,5ee3df5052f1050b1ae6fe50,,1,0,80,37,1,79
,,,,,,,,,,,,,,,,,,,,,,,,,,,,,,,,,,,backspace,5.338999987,JIR,TRUE,,,,,,,142,girafa,Catalan,Sounds/cat_girafa.mp3,2020-06-13_16h18.19.035,TranslationElicitation_spa,3.2.4,Win32,60,5ee3df5052f1050b1ae6fe50,,1,0,80,37,1,79
,,,,,,,,,,,,,,,,,,,,,,,,,,,,,,,,,,,f,5.42599988,JIRF,TRUE,,,,,,,142,girafa,Catalan,Sounds/cat_girafa.mp3,2020-06-13_16h18.19.035,TranslationElicitation_spa,3.2.4,Win32,60,5ee3df5052f1050b1ae6fe50,,1,0,80,37,1,79
,,,,,,,,,,,,,,,,,,,,,,,,,,,,,,,,,,,a,5.559000015,JIRFA,TRUE,,,,,,,142,girafa,Catalan,Sounds/cat_girafa.mp3,2020-06-13_16h18.19.035,TranslationElicitation_spa,3.2.4,Win32,60,5ee3df5052f1050b1ae6fe50,,1,0,80,37,1,79
,,,,,,,,,,,,,,,,,,,,,,,,,,,,,,,,,,,backspace,6.151000023,JIR,TRUE,,,,,,,142,girafa,Catalan,Sounds/cat_girafa.mp3,2020-06-13_16h18.19.035,TranslationElicitation_spa,3.2.4,Win32,60,5ee3df5052f1050b1ae6fe50,,1,0,80,37,1,79
,,,,,,,,,,,,,,,,,,,,,,,,,,,,,,,,,,,a,6.764999866,JIRA,TRUE,,,,,,,142,girafa,Catalan,Sounds/cat_girafa.mp3,2020-06-13_16h18.19.035,TranslationElicitation_spa,3.2.4,Win32,60,5ee3df5052f1050b1ae6fe50,,1,0,80,37,1,79
,,,,,,,,,,,,,,,,,,,,,,,,,,,,,,,,,,,f,7.052999973,JIRAF,TRUE,,,,,,,142,girafa,Catalan,Sounds/cat_girafa.mp3,2020-06-13_16h18.19.035,TranslationElicitation_spa,3.2.4,Win32,60,5ee3df5052f1050b1ae6fe50,,1,0,80,37,1,79
,,,,,,,,,,,,,,,,,,,,,,,,,,,,,,,,,,,a,7.180999994,JIRAFA,TRUE,,,,,,,142,girafa,Catalan,Sounds/cat_girafa.mp3,2020-06-13_16h18.19.035,TranslationElicitation_spa,3.2.4,Win32,60,5ee3df5052f1050b1ae6fe50,,1,0,80,37,1,79
,,,,,,,,,,,,,,,,,,,,,,,,,,,,,,,,,,,return,8.151000023,,TRUE,,,,,,,142,girafa,Catalan,Sounds/cat_girafa.mp3,2020-06-13_16h18.19.035,TranslationElicitation_spa,3.2.4,Win32,60,5ee3df5052f1050b1ae6fe50,8.149999857,1,0,80,37,1,79
,,,,,,,,,,,,,,,,,,,,,,,,,,,,,,,,,,,,,,,,,,,,,142,girafa,Catalan,Sounds/cat_girafa.mp3,2020-06-13_16h18.19.035,TranslationElicitation_spa,3.2.4,Win32,60,5ee3df5052f1050b1ae6fe50,,1,0,80,37,1,79
,,,,,,,,,,,,,,,,,,,,,,,,,,,,,,,,,,,p,8.747000217,P,FALSE,,,,,,,165,pernil,Catalan,Sounds/cat_pernil.mp3,2020-06-13_16h18.19.035,TranslationElicitation_spa,3.2.4,Win32,60,5ee3df5052f1050b1ae6fe50,,1,0,80,58,1,79
,,,,,,,,,,,,,,,,,,,,,,,,,,,,,,,,,,,a,9.666000128,PA,FALSE,,,,,,,165,pernil,Catalan,Sounds/cat_pernil.mp3,2020-06-13_16h18.19.035,TranslationElicitation_spa,3.2.4,Win32,60,5ee3df5052f1050b1ae6fe50,,1,0,80,58,1,79
,,,,,,,,,,,,,,,,,,,,,,,,,,,,,,,,,,,l,9.784000158,PAL,FALSE,,,,,,,165,pernil,Catalan,Sounds/cat_pernil.mp3,2020-06-13_16h18.19.035,TranslationElicitation_spa,3.2.4,Win32,60,5ee3df5052f1050b1ae6fe50,,1,0,80,58,1,79
,,,,,,,,,,,,,,,,,,,,,,,,,,,,,,,,,,,m,9.953000069,PALM,FALSE,,,,,,,165,pernil,Catalan,Sounds/cat_pernil.mp3,2020-06-13_16h18.19.035,TranslationElicitation_spa,3.2.4,Win32,60,5ee3df5052f1050b1ae6fe50,,1,0,80,58,1,79
,,,,,,,,,,,,,,,,,,,,,,,,,,,,,,,,,,,e,10.0480001,PALME,FALSE,,,,,,,165,pernil,Catalan,Sounds/cat_pernil.mp3,2020-06-13_16h18.19.035,TranslationElicitation_spa,3.2.4,Win32,60,5ee3df5052f1050b1ae6fe50,,1,0,80,58,1,79
,,,,,,,,,,,,,,,,,,,,,,,,,,,,,,,,,,,r,10.18200016,PALMER,FALSE,,,,,,,165,pernil,Catalan,Sounds/cat_pernil.mp3,2020-06-13_16h18.19.035,TranslationElicitation_spa,3.2.4,Win32,60,5ee3df5052f1050b1ae6fe50,,1,0,80,58,1,79
,,,,,,,,,,,,,,,,,,,,,,,,,,,,,,,,,,,a,10.33000016,PALMERA,FALSE,,,,,,,165,pernil,Catalan,Sounds/cat_pernil.mp3,2020-06-13_16h18.19.035,TranslationElicitation_spa,3.2.4,Win32,60,5ee3df5052f1050b1ae6fe50,,1,0,80,58,1,79
,,,,,,,,,,,,,,,,,,,,,,,,,,,,,,,,,,,return,10.52600002,,FALSE,,,,,,,165,pernil,Catalan,Sounds/cat_pernil.mp3,2020-06-13_16h18.19.035,TranslationElicitation_spa,3.2.4,Win32,60,5ee3df5052f1050b1ae6fe50,10.52600002,1,0,80,58,1,79
,,,,,,,,,,,,,,,,,,,,,,,,,,,,,,,,,,,,,,,,,,,,,165,pernil,Catalan,Sounds/cat_pernil.mp3,2020-06-13_16h18.19.035,TranslationElicitation_spa,3.2.4,Win32,60,5ee3df5052f1050b1ae6fe50,,1,0,80,58,1,79
,,,,,,,,,,,,,,,,,,,,,,,,,,,,,,,,,,,s,1.649000168,S,FALSE,,,,,,,124,cirera,Catalan,Sounds/cat_cirera.mp3,2020-06-13_16h18.19.035,TranslationElicitation_spa,3.2.4,Win32,60,5ee3df5052f1050b1ae6fe50,,1,0,80,19,1,79
,,,,,,,,,,,,,,,,,,,,,,,,,,,,,,,,,,,i,1.746999979,SI,FALSE,,,,,,,124,cirera,Catalan,Sounds/cat_cirera.mp3,2020-06-13_16h18.19.035,TranslationElicitation_spa,3.2.4,Win32,60,5ee3df5052f1050b1ae6fe50,,1,0,80,19,1,79
,,,,,,,,,,,,,,,,,,,,,,,,,,,,,,,,,,,n,1.94900012,SIN,FALSE,,,,,,,124,cirera,Catalan,Sounds/cat_cirera.mp3,2020-06-13_16h18.19.035,TranslationElicitation_spa,3.2.4,Win32,60,5ee3df5052f1050b1ae6fe50,,1,0,80,19,1,79
,,,,,,,,,,,,,,,,,,,,,,,,,,,,,,,,,,,backspace,2.311000109,S,TRUE,,,,,,,124,cirera,Catalan,Sounds/cat_cirera.mp3,2020-06-13_16h18.19.035,TranslationElicitation_spa,3.2.4,Win32,60,5ee3df5052f1050b1ae6fe50,,1,0,80,19,1,79
,,,,,,,,,,,,,,,,,,,,,,,,,,,,,,,,,,,i,3.177000046,SI,TRUE,,,,,,,124,cirera,Catalan,Sounds/cat_cirera.mp3,2020-06-13_16h18.19.035,TranslationElicitation_spa,3.2.4,Win32,60,5ee3df5052f1050b1ae6fe50,,1,0,80,19,1,79
,,,,,,,,,,,,,,,,,,,,,,,,,,,,,,,,,,,r,3.390000105,SIR,TRUE,,,,,,,124,cirera,Catalan,Sounds/cat_cirera.mp3,2020-06-13_16h18.19.035,TranslationElicitation_spa,3.2.4,Win32,60,5ee3df5052f1050b1ae6fe50,,1,0,80,19,1,79
,,,,,,,,,,,,,,,,,,,,,,,,,,,,,,,,,,,backspace,4.131000042,S,TRUE,,,,,,,124,cirera,Catalan,Sounds/cat_cirera.mp3,2020-06-13_16h18.19.035,TranslationElicitation_spa,3.2.4,Win32,60,5ee3df5052f1050b1ae6fe50,,1,0,80,19,1,79
,,,,,,,,,,,,,,,,,,,,,,,,,,,,,,,,,,,backspace,4.288000107,,TRUE,,,,,,,124,cirera,Catalan,Sounds/cat_cirera.mp3,2020-06-13_16h18.19.035,TranslationElicitation_spa,3.2.4,Win32,60,5ee3df5052f1050b1ae6fe50,,1,0,80,19,1,79
,,,,,,,,,,,,,,,,,,,,,,,,,,,,,,,,,,,backspace,4.718000174,,TRUE,,,,,,,124,cirera,Catalan,Sounds/cat_cirera.mp3,2020-06-13_16h18.19.035,TranslationElicitation_spa,3.2.4,Win32,60,5ee3df5052f1050b1ae6fe50,,1,0,80,19,1,79
,,,,,,,,,,,,,,,,,,,,,,,,,,,,,,,,,,,s,5.011000156,S,TRUE,,,,,,,124,cirera,Catalan,Sounds/cat_cirera.mp3,2020-06-13_16h18.19.035,TranslationElicitation_spa,3.2.4,Win32,60,5ee3df5052f1050b1ae6fe50,,1,0,80,19,1,79
,,,,,,,,,,,,,,,,,,,,,,,,,,,,,,,,,,,i,5.27699995,SI,TRUE,,,,,,,124,cirera,Catalan,Sounds/cat_cirera.mp3,2020-06-13_16h18.19.035,TranslationElicitation_spa,3.2.4,Win32,60,5ee3df5052f1050b1ae6fe50,,1,0,80,19,1,79
,,,,,,,,,,,,,,,,,,,,,,,,,,,,,,,,,,,r,5.480999947,SIR,TRUE,,,,,,,124,cirera,Catalan,Sounds/cat_cirera.mp3,2020-06-13_16h18.19.035,TranslationElicitation_spa,3.2.4,Win32,60,5ee3df5052f1050b1ae6fe50,,1,0,80,19,1,79
,,,,,,,,,,,,,,,,,,,,,,,,,,,,,,,,,,,e,5.59800005,SIRE,TRUE,,,,,,,124,cirera,Catalan,Sounds/cat_cirera.mp3,2020-06-13_16h18.19.035,TranslationElicitation_spa,3.2.4,Win32,60,5ee3df5052f1050b1ae6fe50,,1,0,80,19,1,79
,,,,,,,,,,,,,,,,,,,,,,,,,,,,,,,,,,,n,5.756999969,SIREN,TRUE,,,,,,,124,cirera,Catalan,Sounds/cat_cirera.mp3,2020-06-13_16h18.19.035,TranslationElicitation_spa,3.2.4,Win32,60,5ee3df5052f1050b1ae6fe50,,1,0,80,19,1,79
,,,,,,,,,,,,,,,,,,,,,,,,,,,,,,,,,,,a,5.920000076,SIRENA,TRUE,,,,,,,124,cirera,Catalan,Sounds/cat_cirera.mp3,2020-06-13_16h18.19.035,TranslationElicitation_spa,3.2.4,Win32,60,5ee3df5052f1050b1ae6fe50,,1,0,80,19,1,79
,,,,,,,,,,,,,,,,,,,,,,,,,,,,,,,,,,,return,6.437000036,,TRUE,,,,,,,124,cirera,Catalan,Sounds/cat_cirera.mp3,2020-06-13_16h18.19.035,TranslationElicitation_spa,3.2.4,Win32,60,5ee3df5052f1050b1ae6fe50,6.437000036,1,0,80,19,1,79
,,,,,,,,,,,,,,,,,,,,,,,,,,,,,,,,,,,,,,,,,,,,,124,cirera,Catalan,Sounds/cat_cirera.mp3,2020-06-13_16h18.19.035,TranslationElicitation_spa,3.2.4,Win32,60,5ee3df5052f1050b1ae6fe50,,1,0,80,19,1,79
,,,,,,,,,,,,,,,,,,,,,,,,,,,,,,,,,,,g,1.249000072,G,FALSE,,,,,,,138,galeta,Catalan,Sounds/cat_galeta.mp3,2020-06-13_16h18.19.035,TranslationElicitation_spa,3.2.4,Win32,60,5ee3df5052f1050b1ae6fe50,,1,0,80,33,1,79
,,,,,,,,,,,,,,,,,,,,,,,,,,,,,,,,,,,a,1.44900012,GA,FALSE,,,,,,,138,galeta,Catalan,Sounds/cat_galeta.mp3,2020-06-13_16h18.19.035,TranslationElicitation_spa,3.2.4,Win32,60,5ee3df5052f1050b1ae6fe50,,1,0,80,33,1,79
,,,,,,,,,,,,,,,,,,,,,,,,,,,,,,,,,,,l,1.748000145,GAL,FALSE,,,,,,,138,galeta,Catalan,Sounds/cat_galeta.mp3,2020-06-13_16h18.19.035,TranslationElicitation_spa,3.2.4,Win32,60,5ee3df5052f1050b1ae6fe50,,1,0,80,33,1,79
,,,,,,,,,,,,,,,,,,,,,,,,,,,,,,,,,,,l,1.919000149,GALL,FALSE,,,,,,,138,galeta,Catalan,Sounds/cat_galeta.mp3,2020-06-13_16h18.19.035,TranslationElicitation_spa,3.2.4,Win32,60,5ee3df5052f1050b1ae6fe50,,1,0,80,33,1,79
,,,,,,,,,,,,,,,,,,,,,,,,,,,,,,,,,,,e,2.019000053,GALLE,FALSE,,,,,,,138,galeta,Catalan,Sounds/cat_galeta.mp3,2020-06-13_16h18.19.035,TranslationElicitation_spa,3.2.4,Win32,60,5ee3df5052f1050b1ae6fe50,,1,0,80,33,1,79
,,,,,,,,,,,,,,,,,,,,,,,,,,,,,,,,,,,t,2.180000067,GALLET,FALSE,,,,,,,138,galeta,Catalan,Sounds/cat_galeta.mp3,2020-06-13_16h18.19.035,TranslationElicitation_spa,3.2.4,Win32,60,5ee3df5052f1050b1ae6fe50,,1,0,80,33,1,79
,,,,,,,,,,,,,,,,,,,,,,,,,,,,,,,,,,,a,2.403000116,GALLETA,FALSE,,,,,,,138,galeta,Catalan,Sounds/cat_galeta.mp3,2020-06-13_16h18.19.035,TranslationElicitation_spa,3.2.4,Win32,60,5ee3df5052f1050b1ae6fe50,,1,0,80,33,1,79
,,,,,,,,,,,,,,,,,,,,,,,,,,,,,,,,,,,return,2.728000164,,FALSE,,,,,,,138,galeta,Catalan,Sounds/cat_galeta.mp3,2020-06-13_16h18.19.035,TranslationElicitation_spa,3.2.4,Win32,60,5ee3df5052f1050b1ae6fe50,2.728000164,1,0,80,33,1,79
,,,,,,,,,,,,,,,,,,,,,,,,,,,,,,,,,,,,,,,,,,,,,138,galeta,Catalan,Sounds/cat_galeta.mp3,2020-06-13_16h18.19.035,TranslationElicitation_spa,3.2.4,Win32,60,5ee3df5052f1050b1ae6fe50,,1,0,80,33,1,79
,,,,,,,,,,,,,,,,,,,,,,,,,,,,,,,,,,,p,1.837000132,P,FALSE,,,,,,,169,plat,Catalan,Sounds/cat_plat.mp3,2020-06-13_16h18.19.035,TranslationElicitation_spa,3.2.4,Win32,60,5ee3df5052f1050b1ae6fe50,,1,0,80,61,1,79
,,,,,,,,,,,,,,,,,,,,,,,,,,,,,,,,,,,l,2.018000126,PL,FALSE,,,,,,,169,plat,Catalan,Sounds/cat_plat.mp3,2020-06-13_16h18.19.035,TranslationElicitation_spa,3.2.4,Win32,60,5ee3df5052f1050b1ae6fe50,,1,0,80,61,1,79
,,,,,,,,,,,,,,,,,,,,,,,,,,,,,,,,,,,a,2.202000141,PLA,FALSE,,,,,,,169,plat,Catalan,Sounds/cat_plat.mp3,2020-06-13_16h18.19.035,TranslationElicitation_spa,3.2.4,Win32,60,5ee3df5052f1050b1ae6fe50,,1,0,80,61,1,79
,,,,,,,,,,,,,,,,,,,,,,,,,,,,,,,,,,,t,2.368000031,PLAT,FALSE,,,,,,,169,plat,Catalan,Sounds/cat_plat.mp3,2020-06-13_16h18.19.035,TranslationElicitation_spa,3.2.4,Win32,60,5ee3df5052f1050b1ae6fe50,,1,0,80,61,1,79
,,,,,,,,,,,,,,,,,,,,,,,,,,,,,,,,,,,o,2.488000154,PLATO,FALSE,,,,,,,169,plat,Catalan,Sounds/cat_plat.mp3,2020-06-13_16h18.19.035,TranslationElicitation_spa,3.2.4,Win32,60,5ee3df5052f1050b1ae6fe50,,1,0,80,61,1,79
,,,,,,,,,,,,,,,,,,,,,,,,,,,,,,,,,,,return,2.827000141,,FALSE,,,,,,,169,plat,Catalan,Sounds/cat_plat.mp3,2020-06-13_16h18.19.035,TranslationElicitation_spa,3.2.4,Win32,60,5ee3df5052f1050b1ae6fe50,2.827000141,1,0,80,61,1,79
,,,,,,,,,,,,,,,,,,,,,,,,,,,,,,,,,,,,,,,,,,,,,169,plat,Catalan,Sounds/cat_plat.mp3,2020-06-13_16h18.19.035,TranslationElicitation_spa,3.2.4,Win32,60,5ee3df5052f1050b1ae6fe50,,1,0,80,61,1,79
,,,,,,,,,,,,,,,,,,,,,,,,,,,,,,,,,,,a,2.007999897,A,FALSE,,,,,,,130,entrepa,Catalan,Sounds/cat_entrepa.mp3,2020-06-13_16h18.19.035,TranslationElicitation_spa,3.2.4,Win32,60,5ee3df5052f1050b1ae6fe50,,1,0,80,25,1,79
,,,,,,,,,,,,,,,,,,,,,,,,,,,,,,,,,,,t,2.430999994,AT,FALSE,,,,,,,130,entrepa,Catalan,Sounds/cat_entrepa.mp3,2020-06-13_16h18.19.035,TranslationElicitation_spa,3.2.4,Win32,60,5ee3df5052f1050b1ae6fe50,,1,0,80,25,1,79
,,,,,,,,,,,,,,,,,,,,,,,,,,,,,,,,,,,r,2.663999796,ATR,FALSE,,,,,,,130,entrepa,Catalan,Sounds/cat_entrepa.mp3,2020-06-13_16h18.19.035,TranslationElicitation_spa,3.2.4,Win32,60,5ee3df5052f1050b1ae6fe50,,1,0,80,25,1,79
,,,,,,,,,,,,,,,,,,,,,,,,,,,,,,,,,,,a,2.912999868,ATRA,FALSE,,,,,,,130,entrepa,Catalan,Sounds/cat_entrepa.mp3,2020-06-13_16h18.19.035,TranslationElicitation_spa,3.2.4,Win32,60,5ee3df5052f1050b1ae6fe50,,1,0,80,25,1,79
,,,,,,,,,,,,,,,,,,,,,,,,,,,,,,,,,,,p,3.110999823,ATRAP,FALSE,,,,,,,130,entrepa,Catalan,Sounds/cat_entrepa.mp3,2020-06-13_16h18.19.035,TranslationElicitation_spa,3.2.4,Win32,60,5ee3df5052f1050b1ae6fe50,,1,0,80,25,1,79
,,,,,,,,,,,,,,,,,,,,,,,,,,,,,,,,,,,a,3.180999994,ATRAPA,FALSE,,,,,,,130,entrepa,Catalan,Sounds/cat_entrepa.mp3,2020-06-13_16h18.19.035,TranslationElicitation_spa,3.2.4,Win32,60,5ee3df5052f1050b1ae6fe50,,1,0,80,25,1,79
,,,,,,,,,,,,,,,,,,,,,,,,,,,,,,,,,,,r,3.357999802,ATRAPAR,FALSE,,,,,,,130,entrepa,Catalan,Sounds/cat_entrepa.mp3,2020-06-13_16h18.19.035,TranslationElicitation_spa,3.2.4,Win32,60,5ee3df5052f1050b1ae6fe50,,1,0,80,25,1,79
,,,,,,,,,,,,,,,,,,,,,,,,,,,,,,,,,,,return,4.376999855,,FALSE,,,,,,,130,entrepa,Catalan,Sounds/cat_entrepa.mp3,2020-06-13_16h18.19.035,TranslationElicitation_spa,3.2.4,Win32,60,5ee3df5052f1050b1ae6fe50,4.376999855,1,0,80,25,1,79
,,,,,,,,,,,,,,,,,,,,,,,,,,,,,,,,,,,,,,,,,,,,,130,entrepa,Catalan,Sounds/cat_entrepa.mp3,2020-06-13_16h18.19.035,TranslationElicitation_spa,3.2.4,Win32,60,5ee3df5052f1050b1ae6fe50,,1,0,80,25,1,79
,,,,,,,,,,,,,,,,,,,,,,,,,,,,,,,,,,,c,1.218000174,C,FALSE,,,,,,,121,camisa,Catalan,Sounds/cat_camisa.mp3,2020-06-13_16h18.19.035,TranslationElicitation_spa,3.2.4,Win32,60,5ee3df5052f1050b1ae6fe50,,1,0,80,16,1,79
,,,,,,,,,,,,,,,,,,,,,,,,,,,,,,,,,,,a,1.664000034,CA,FALSE,,,,,,,121,camisa,Catalan,Sounds/cat_camisa.mp3,2020-06-13_16h18.19.035,TranslationElicitation_spa,3.2.4,Win32,60,5ee3df5052f1050b1ae6fe50,,1,0,80,16,1,79
,,,,,,,,,,,,,,,,,,,,,,,,,,,,,,,,,,,m,1.787000179,CAM,FALSE,,,,,,,121,camisa,Catalan,Sounds/cat_camisa.mp3,2020-06-13_16h18.19.035,TranslationElicitation_spa,3.2.4,Win32,60,5ee3df5052f1050b1ae6fe50,,1,0,80,16,1,79
,,,,,,,,,,,,,,,,,,,,,,,,,,,,,,,,,,,i,1.868999958,CAMI,FALSE,,,,,,,121,camisa,Catalan,Sounds/cat_camisa.mp3,2020-06-13_16h18.19.035,TranslationElicitation_spa,3.2.4,Win32,60,5ee3df5052f1050b1ae6fe50,,1,0,80,16,1,79
,,,,,,,,,,,,,,,,,,,,,,,,,,,,,,,,,,,s,2.039999962,CAMIS,FALSE,,,,,,,121,camisa,Catalan,Sounds/cat_camisa.mp3,2020-06-13_16h18.19.035,TranslationElicitation_spa,3.2.4,Win32,60,5ee3df5052f1050b1ae6fe50,,1,0,80,16,1,79
,,,,,,,,,,,,,,,,,,,,,,,,,,,,,,,,,,,a,2.154000044,CAMISA,FALSE,,,,,,,121,camisa,Catalan,Sounds/cat_camisa.mp3,2020-06-13_16h18.19.035,TranslationElicitation_spa,3.2.4,Win32,60,5ee3df5052f1050b1ae6fe50,,1,0,80,16,1,79
,,,,,,,,,,,,,,,,,,,,,,,,,,,,,,,,,,,return,2.580000162,,FALSE,,,,,,,121,camisa,Catalan,Sounds/cat_camisa.mp3,2020-06-13_16h18.19.035,TranslationElicitation_spa,3.2.4,Win32,60,5ee3df5052f1050b1ae6fe50,2.580000162,1,0,80,16,1,79
,,,,,,,,,,,,,,,,,,,,,,,,,,,,,,,,,,,,,,,,,,,,,121,camisa,Catalan,Sounds/cat_camisa.mp3,2020-06-13_16h18.19.035,TranslationElicitation_spa,3.2.4,Win32,60,5ee3df5052f1050b1ae6fe50,,1,0,80,16,1,79
,,,,,,,,,,,,,,,,,,,,,,,,,,,,,,,,,,,e,2.00999999,E,FALSE,,,,,,,131,esponja,Catalan,Sounds/cat_esponja.mp3,2020-06-13_16h18.19.035,TranslationElicitation_spa,3.2.4,Win32,60,5ee3df5052f1050b1ae6fe50,,1,0,80,26,1,79
,,,,,,,,,,,,,,,,,,,,,,,,,,,,,,,,,,,s,2.088000059,ES,FALSE,,,,,,,131,esponja,Catalan,Sounds/cat_esponja.mp3,2020-06-13_16h18.19.035,TranslationElicitation_spa,3.2.4,Win32,60,5ee3df5052f1050b1ae6fe50,,1,0,80,26,1,79
,,,,,,,,,,,,,,,,,,,,,,,,,,,,,,,,,,,p,4.315000057,ESP,FALSE,,,,,,,131,esponja,Catalan,Sounds/cat_esponja.mp3,2020-06-13_16h18.19.035,TranslationElicitation_spa,3.2.4,Win32,60,5ee3df5052f1050b1ae6fe50,,1,0,80,26,1,79
,,,,,,,,,,,,,,,,,,,,,,,,,,,,,,,,,,,a,4.430999994,ESPA,FALSE,,,,,,,131,esponja,Catalan,Sounds/cat_esponja.mp3,2020-06-13_16h18.19.035,TranslationElicitation_spa,3.2.4,Win32,60,5ee3df5052f1050b1ae6fe50,,1,0,80,26,1,79
,,,,,,,,,,,,,,,,,,,,,,,,,,,,,,,,,,,semicolon,4.608999968,ESPAÑ,FALSE,,,,,,,131,esponja,Catalan,Sounds/cat_esponja.mp3,2020-06-13_16h18.19.035,TranslationElicitation_spa,3.2.4,Win32,60,5ee3df5052f1050b1ae6fe50,,1,0,80,26,1,79
,,,,,,,,,,,,,,,,,,,,,,,,,,,,,,,,,,,a,4.803999901,ESPAÑA,FALSE,,,,,,,131,esponja,Catalan,Sounds/cat_esponja.mp3,2020-06-13_16h18.19.035,TranslationElicitation_spa,3.2.4,Win32,60,5ee3df5052f1050b1ae6fe50,,1,0,80,26,1,79
,,,,,,,,,,,,,,,,,,,,,,,,,,,,,,,,,,,return,5.013000011,,FALSE,,,,,,,131,esponja,Catalan,Sounds/cat_esponja.mp3,2020-06-13_16h18.19.035,TranslationElicitation_spa,3.2.4,Win32,60,5ee3df5052f1050b1ae6fe50,5.013000011,1,0,80,26,1,79
,,,,,,,,,,,,,,,,,,,,,,,,,,,,,,,,,,,,,,,,,,,,,131,esponja,Catalan,Sounds/cat_esponja.mp3,2020-06-13_16h18.19.035,TranslationElicitation_spa,3.2.4,Win32,60,5ee3df5052f1050b1ae6fe50,,1,0,80,26,1,79
,,,,,,,,,,,,,,,,,,,,,,,,,,,,,,,,,,,p,1.473999977,P,FALSE,,,,,,,162,pa,Catalan,Sounds/cat_pa.mp3,2020-06-13_16h18.19.035,TranslationElicitation_spa,3.2.4,Win32,60,5ee3df5052f1050b1ae6fe50,,1,0,80,55,1,79
,,,,,,,,,,,,,,,,,,,,,,,,,,,,,,,,,,,a,1.789000034,PA,FALSE,,,,,,,162,pa,Catalan,Sounds/cat_pa.mp3,2020-06-13_16h18.19.035,TranslationElicitation_spa,3.2.4,Win32,60,5ee3df5052f1050b1ae6fe50,,1,0,80,55,1,79
,,,,,,,,,,,,,,,,,,,,,,,,,,,,,,,,,,,n,1.905999899,PAN,FALSE,,,,,,,162,pa,Catalan,Sounds/cat_pa.mp3,2020-06-13_16h18.19.035,TranslationElicitation_spa,3.2.4,Win32,60,5ee3df5052f1050b1ae6fe50,,1,0,80,55,1,79
,,,,,,,,,,,,,,,,,,,,,,,,,,,,,,,,,,,return,2.24000001,,FALSE,,,,,,,162,pa,Catalan,Sounds/cat_pa.mp3,2020-06-13_16h18.19.035,TranslationElicitation_spa,3.2.4,Win32,60,5ee3df5052f1050b1ae6fe50,2.24000001,1,0,80,55,1,79
,,,,,,,,,,,,,,,,,,,,,,,,,,,,,,,,,,,,,,,,,,,,,162,pa,Catalan,Sounds/cat_pa.mp3,2020-06-13_16h18.19.035,TranslationElicitation_spa,3.2.4,Win32,60,5ee3df5052f1050b1ae6fe50,,1,0,80,55,1,79
,,,,,,,,,,,,,,,,,,,,,,,,,,,,,,,,,,,p,1.447999954,P,FALSE,,,,,,,174,porta,Catalan,Sounds/cat_porta.mp3,2020-06-13_16h18.19.035,TranslationElicitation_spa,3.2.4,Win32,60,5ee3df5052f1050b1ae6fe50,,1,0,80,66,1,79
,,,,,,,,,,,,,,,,,,,,,,,,,,,,,,,,,,,u,1.743999958,PU,FALSE,,,,,,,174,porta,Catalan,Sounds/cat_porta.mp3,2020-06-13_16h18.19.035,TranslationElicitation_spa,3.2.4,Win32,60,5ee3df5052f1050b1ae6fe50,,1,0,80,66,1,79
,,,,,,,,,,,,,,,,,,,,,,,,,,,,,,,,,,,e,1.865999937,PUE,FALSE,,,,,,,174,porta,Catalan,Sounds/cat_porta.mp3,2020-06-13_16h18.19.035,TranslationElicitation_spa,3.2.4,Win32,60,5ee3df5052f1050b1ae6fe50,,1,0,80,66,1,79
,,,,,,,,,,,,,,,,,,,,,,,,,,,,,,,,,,,r,1.95299983,PUER,FALSE,,,,,,,174,porta,Catalan,Sounds/cat_porta.mp3,2020-06-13_16h18.19.035,TranslationElicitation_spa,3.2.4,Win32,60,5ee3df5052f1050b1ae6fe50,,1,0,80,66,1,79
,,,,,,,,,,,,,,,,,,,,,,,,,,,,,,,,,,,t,2.121999979,PUERT,FALSE,,,,,,,174,porta,Catalan,Sounds/cat_porta.mp3,2020-06-13_16h18.19.035,TranslationElicitation_spa,3.2.4,Win32,60,5ee3df5052f1050b1ae6fe50,,1,0,80,66,1,79
,,,,,,,,,,,,,,,,,,,,,,,,,,,,,,,,,,,a,2.287999868,PUERTA,FALSE,,,,,,,174,porta,Catalan,Sounds/cat_porta.mp3,2020-06-13_16h18.19.035,TranslationElicitation_spa,3.2.4,Win32,60,5ee3df5052f1050b1ae6fe50,,1,0,80,66,1,79
,,,,,,,,,,,,,,,,,,,,,,,,,,,,,,,,,,,return,2.612999916,,FALSE,,,,,,,174,porta,Catalan,Sounds/cat_porta.mp3,2020-06-13_16h18.19.035,TranslationElicitation_spa,3.2.4,Win32,60,5ee3df5052f1050b1ae6fe50,2.612999916,1,0,80,66,1,79
,,,,,,,,,,,,,,,,,,,,,,,,,,,,,,,,,,,,,,,,,,,,,174,porta,Catalan,Sounds/cat_porta.mp3,2020-06-13_16h18.19.035,TranslationElicitation_spa,3.2.4,Win32,60,5ee3df5052f1050b1ae6fe50,,1,0,80,66,1,79
,,,,,,,,,,,,,,,,,,,,,,,,,,,,,,,,,,,g,1.549000025,G,FALSE,,,,,,,144,gorra,Catalan,Sounds/cat_gorra.mp3,2020-06-13_16h18.19.035,TranslationElicitation_spa,3.2.4,Win32,60,5ee3df5052f1050b1ae6fe50,,1,0,80,39,1,79
,,,,,,,,,,,,,,,,,,,,,,,,,,,,,,,,,,,o,1.73300004,GO,FALSE,,,,,,,144,gorra,Catalan,Sounds/cat_gorra.mp3,2020-06-13_16h18.19.035,TranslationElicitation_spa,3.2.4,Win32,60,5ee3df5052f1050b1ae6fe50,,1,0,80,39,1,79
,,,,,,,,,,,,,,,,,,,,,,,,,,,,,,,,,,,r,1.890000105,GOR,FALSE,,,,,,,144,gorra,Catalan,Sounds/cat_gorra.mp3,2020-06-13_16h18.19.035,TranslationElicitation_spa,3.2.4,Win32,60,5ee3df5052f1050b1ae6fe50,,1,0,80,39,1,79
,,,,,,,,,,,,,,,,,,,,,,,,,,,,,,,,,,,r,2.065999985,GORR,FALSE,,,,,,,144,gorra,Catalan,Sounds/cat_gorra.mp3,2020-06-13_16h18.19.035,TranslationElicitation_spa,3.2.4,Win32,60,5ee3df5052f1050b1ae6fe50,,1,0,80,39,1,79
,,,,,,,,,,,,,,,,,,,,,,,,,,,,,,,,,,,a,2.200000048,GORRA,FALSE,,,,,,,144,gorra,Catalan,Sounds/cat_gorra.mp3,2020-06-13_16h18.19.035,TranslationElicitation_spa,3.2.4,Win32,60,5ee3df5052f1050b1ae6fe50,,1,0,80,39,1,79
,,,,,,,,,,,,,,,,,,,,,,,,,,,,,,,,,,,return,2.684000015,,FALSE,,,,,,,144,gorra,Catalan,Sounds/cat_gorra.mp3,2020-06-13_16h18.19.035,TranslationElicitation_spa,3.2.4,Win32,60,5ee3df5052f1050b1ae6fe50,2.684000015,1,0,80,39,1,79
,,,,,,,,,,,,,,,,,,,,,,,,,,,,,,,,,,,,,,,,,,,,,144,gorra,Catalan,Sounds/cat_gorra.mp3,2020-06-13_16h18.19.035,TranslationElicitation_spa,3.2.4,Win32,60,5ee3df5052f1050b1ae6fe50,,1,0,80,39,1,79
,,,,,,,,,,,,,,,,,,,,,,,,,,,,,,,,,,,c,1.665999889,C,FALSE,,,,,,,188,xocolata,Catalan,Sounds/cat_xocolata.mp3,2020-06-13_16h18.19.035,TranslationElicitation_spa,3.2.4,Win32,60,5ee3df5052f1050b1ae6fe50,,1,0,80,78,1,79
,,,,,,,,,,,,,,,,,,,,,,,,,,,,,,,,,,,h,1.75,CH,FALSE,,,,,,,188,xocolata,Catalan,Sounds/cat_xocolata.mp3,2020-06-13_16h18.19.035,TranslationElicitation_spa,3.2.4,Win32,60,5ee3df5052f1050b1ae6fe50,,1,0,80,78,1,79
,,,,,,,,,,,,,,,,,,,,,,,,,,,,,,,,,,,o,1.970000029,CHO,FALSE,,,,,,,188,xocolata,Catalan,Sounds/cat_xocolata.mp3,2020-06-13_16h18.19.035,TranslationElicitation_spa,3.2.4,Win32,60,5ee3df5052f1050b1ae6fe50,,1,0,80,78,1,79
,,,,,,,,,,,,,,,,,,,,,,,,,,,,,,,,,,,c,2.319999933,CHOC,FALSE,,,,,,,188,xocolata,Catalan,Sounds/cat_xocolata.mp3,2020-06-13_16h18.19.035,TranslationElicitation_spa,3.2.4,Win32,60,5ee3df5052f1050b1ae6fe50,,1,0,80,78,1,79
,,,,,,,,,,,,,,,,,,,,,,,,,,,,,,,,,,,o,2.424000025,CHOCO,FALSE,,,,,,,188,xocolata,Catalan,Sounds/cat_xocolata.mp3,2020-06-13_16h18.19.035,TranslationElicitation_spa,3.2.4,Win32,60,5ee3df5052f1050b1ae6fe50,,1,0,80,78,1,79
,,,,,,,,,,,,,,,,,,,,,,,,,,,,,,,,,,,l,2.570999861,CHOCOL,FALSE,,,,,,,188,xocolata,Catalan,Sounds/cat_xocolata.mp3,2020-06-13_16h18.19.035,TranslationElicitation_spa,3.2.4,Win32,60,5ee3df5052f1050b1ae6fe50,,1,0,80,78,1,79
,,,,,,,,,,,,,,,,,,,,,,,,,,,,,,,,,,,a,2.707000017,CHOCOLA,FALSE,,,,,,,188,xocolata,Catalan,Sounds/cat_xocolata.mp3,2020-06-13_16h18.19.035,TranslationElicitation_spa,3.2.4,Win32,60,5ee3df5052f1050b1ae6fe50,,1,0,80,78,1,79
,,,,,,,,,,,,,,,,,,,,,,,,,,,,,,,,,,,t,3.073999882,CHOCOLAT,FALSE,,,,,,,188,xocolata,Catalan,Sounds/cat_xocolata.mp3,2020-06-13_16h18.19.035,TranslationElicitation_spa,3.2.4,Win32,60,5ee3df5052f1050b1ae6fe50,,1,0,80,78,1,79
,,,,,,,,,,,,,,,,,,,,,,,,,,,,,,,,,,,e,3.251999855,CHOCOLATE,FALSE,,,,,,,188,xocolata,Catalan,Sounds/cat_xocolata.mp3,2020-06-13_16h18.19.035,TranslationElicitation_spa,3.2.4,Win32,60,5ee3df5052f1050b1ae6fe50,,1,0,80,78,1,79
,,,,,,,,,,,,,,,,,,,,,,,,,,,,,,,,,,,return,3.625999928,,FALSE,,,,,,,188,xocolata,Catalan,Sounds/cat_xocolata.mp3,2020-06-13_16h18.19.035,TranslationElicitation_spa,3.2.4,Win32,60,5ee3df5052f1050b1ae6fe50,3.625999928,1,0,80,78,1,79
,,,,,,,,,,,,,,,,,,,,,,,,,,,,,,,,,,,,,,,,,,,,,188,xocolata,Catalan,Sounds/cat_xocolata.mp3,2020-06-13_16h18.19.035,TranslationElicitation_spa,3.2.4,Win32,60,5ee3df5052f1050b1ae6fe50,,1,0,80,78,1,79
,,,,,,,,,,,,,,,,,,,,,,,,,,,,,,,,,,,c,21.99800014,C,FALSE,,,,,,,125,colom,Catalan,Sounds/cat_colom.mp3,2020-06-13_16h18.19.035,TranslationElicitation_spa,3.2.4,Win32,60,5ee3df5052f1050b1ae6fe50,,1,0,80,20,1,79
,,,,,,,,,,,,,,,,,,,,,,,,,,,,,,,,,,,u,22.329,CU,FALSE,,,,,,,125,colom,Catalan,Sounds/cat_colom.mp3,2020-06-13_16h18.19.035,TranslationElicitation_spa,3.2.4,Win32,60,5ee3df5052f1050b1ae6fe50,,1,0,80,20,1,79
,,,,,,,,,,,,,,,,,,,,,,,,,,,,,,,,,,,l,22.61300015,CUL,FALSE,,,,,,,125,colom,Catalan,Sounds/cat_colom.mp3,2020-06-13_16h18.19.035,TranslationElicitation_spa,3.2.4,Win32,60,5ee3df5052f1050b1ae6fe50,,1,0,80,20,1,79
,,,,,,,,,,,,,,,,,,,,,,,,,,,,,,,,,,,o,22.81900001,CULO,FALSE,,,,,,,125,colom,Catalan,Sounds/cat_colom.mp3,2020-06-13_16h18.19.035,TranslationElicitation_spa,3.2.4,Win32,60,5ee3df5052f1050b1ae6fe50,,1,0,80,20,1,79
,,,,,,,,,,,,,,,,,,,,,,,,,,,,,,,,,,,m,23.01800013,CULOM,FALSE,,,,,,,125,colom,Catalan,Sounds/cat_colom.mp3,2020-06-13_16h18.19.035,TranslationElicitation_spa,3.2.4,Win32,60,5ee3df5052f1050b1ae6fe50,,1,0,80,20,1,79
,,,,,,,,,,,,,,,,,,,,,,,,,,,,,,,,,,,return,24.77699995,,FALSE,,,,,,,125,colom,Catalan,Sounds/cat_colom.mp3,2020-06-13_16h18.19.035,TranslationElicitation_spa,3.2.4,Win32,60,5ee3df5052f1050b1ae6fe50,24.77699995,1,0,80,20,1,79
,,,,,,,,,,,,,,,,,,,,,,,,,,,,,,,,,,,,,,,,,,,,,125,colom,Catalan,Sounds/cat_colom.mp3,2020-06-13_16h18.19.035,TranslationElicitation_spa,3.2.4,Win32,60,5ee3df5052f1050b1ae6fe50,,1,0,80,20,1,79
,,,,,,,,,,,,,,,,,,,,,,,,,,,,,,,,,,,c,1.794999838,C,FALSE,,,,,,,123,cavall,Catalan,Sounds/cat_cavall.mp3,2020-06-13_16h18.19.035,TranslationElicitation_spa,3.2.4,Win32,60,5ee3df5052f1050b1ae6fe50,,1,0,80,18,1,79
,,,,,,,,,,,,,,,,,,,,,,,,,,,,,,,,,,,a,1.976999998,CA,FALSE,,,,,,,123,cavall,Catalan,Sounds/cat_cavall.mp3,2020-06-13_16h18.19.035,TranslationElicitation_spa,3.2.4,Win32,60,5ee3df5052f1050b1ae6fe50,,1,0,80,18,1,79
,,,,,,,,,,,,,,,,,,,,,,,,,,,,,,,,,,,b,2.164999962,CAB,FALSE,,,,,,,123,cavall,Catalan,Sounds/cat_cavall.mp3,2020-06-13_16h18.19.035,TranslationElicitation_spa,3.2.4,Win32,60,5ee3df5052f1050b1ae6fe50,,1,0,80,18,1,79
,,,,,,,,,,,,,,,,,,,,,,,,,,,,,,,,,,,a,2.707999945,CABA,FALSE,,,,,,,123,cavall,Catalan,Sounds/cat_cavall.mp3,2020-06-13_16h18.19.035,TranslationElicitation_spa,3.2.4,Win32,60,5ee3df5052f1050b1ae6fe50,,1,0,80,18,1,79
,,,,,,,,,,,,,,,,,,,,,,,,,,,,,,,,,,,l,3.134000063,CABAL,FALSE,,,,,,,123,cavall,Catalan,Sounds/cat_cavall.mp3,2020-06-13_16h18.19.035,TranslationElicitation_spa,3.2.4,Win32,60,5ee3df5052f1050b1ae6fe50,,1,0,80,18,1,79
,,,,,,,,,,,,,,,,,,,,,,,,,,,,,,,,,,,l,3.286000013,CABALL,FALSE,,,,,,,123,cavall,Catalan,Sounds/cat_cavall.mp3,2020-06-13_16h18.19.035,TranslationElicitation_spa,3.2.4,Win32,60,5ee3df5052f1050b1ae6fe50,,1,0,80,18,1,79
,,,,,,,,,,,,,,,,,,,,,,,,,,,,,,,,,,,o,3.488999844,CABALLO,FALSE,,,,,,,123,cavall,Catalan,Sounds/cat_cavall.mp3,2020-06-13_16h18.19.035,TranslationElicitation_spa,3.2.4,Win32,60,5ee3df5052f1050b1ae6fe50,,1,0,80,18,1,79
,,,,,,,,,,,,,,,,,,,,,,,,,,,,,,,,,,,return,3.779000044,,FALSE,,,,,,,123,cavall,Catalan,Sounds/cat_cavall.mp3,2020-06-13_16h18.19.035,TranslationElicitation_spa,3.2.4,Win32,60,5ee3df5052f1050b1ae6fe50,3.779000044,1,0,80,18,1,79
,,,,,,,,,,,,,,,,,,,,,,,,,,,,,,,,,,,,,,,,,,,,,123,cavall,Catalan,Sounds/cat_cavall.mp3,2020-06-13_16h18.19.035,TranslationElicitation_spa,3.2.4,Win32,60,5ee3df5052f1050b1ae6fe50,,1,0,80,18,1,79
,,,,,,,,,,,,,,,,,,,,,,,,,,,,,,,,,,,p,1.633000135,P,FALSE,,,,,,,170,ploma,Catalan,Sounds/cat_ploma.mp3,2020-06-13_16h18.19.035,TranslationElicitation_spa,3.2.4,Win32,60,5ee3df5052f1050b1ae6fe50,,1,0,80,62,1,79
,,,,,,,,,,,,,,,,,,,,,,,,,,,,,,,,,,,l,1.766000032,PL,FALSE,,,,,,,170,ploma,Catalan,Sounds/cat_ploma.mp3,2020-06-13_16h18.19.035,TranslationElicitation_spa,3.2.4,Win32,60,5ee3df5052f1050b1ae6fe50,,1,0,80,62,1,79
,,,,,,,,,,,,,,,,,,,,,,,,,,,,,,,,,,,u,2.150000095,PLU,FALSE,,,,,,,170,ploma,Catalan,Sounds/cat_ploma.mp3,2020-06-13_16h18.19.035,TranslationElicitation_spa,3.2.4,Win32,60,5ee3df5052f1050b1ae6fe50,,1,0,80,62,1,79
,,,,,,,,,,,,,,,,,,,,,,,,,,,,,,,,,,,m,2.481000185,PLUM,FALSE,,,,,,,170,ploma,Catalan,Sounds/cat_ploma.mp3,2020-06-13_16h18.19.035,TranslationElicitation_spa,3.2.4,Win32,60,5ee3df5052f1050b1ae6fe50,,1,0,80,62,1,79
,,,,,,,,,,,,,,,,,,,,,,,,,,,,,,,,,,,a,2.594000101,PLUMA,FALSE,,,,,,,170,ploma,Catalan,Sounds/cat_ploma.mp3,2020-06-13_16h18.19.035,TranslationElicitation_spa,3.2.4,Win32,60,5ee3df5052f1050b1ae6fe50,,1,0,80,62,1,79
,,,,,,,,,,,,,,,,,,,,,,,,,,,,,,,,,,,return,2.809000015,,FALSE,,,,,,,170,ploma,Catalan,Sounds/cat_ploma.mp3,2020-06-13_16h18.19.035,TranslationElicitation_spa,3.2.4,Win32,60,5ee3df5052f1050b1ae6fe50,2.809000015,1,0,80,62,1,79
,,,,,,,,,,,,,,,,,,,,,,,,,,,,,,,,,,,,,,,,,,,,,170,ploma,Catalan,Sounds/cat_ploma.mp3,2020-06-13_16h18.19.035,TranslationElicitation_spa,3.2.4,Win32,60,5ee3df5052f1050b1ae6fe50,,1,0,80,62,1,79
,,,,,,,,,,,,,,,,,,,,,,,,,,,,,,,,,,,a,1.559999943,A,FALSE,,,,,,,105,aigua,Catalan,Sounds/cat_aigua.mp3,2020-06-13_16h18.19.035,TranslationElicitation_spa,3.2.4,Win32,60,5ee3df5052f1050b1ae6fe50,,1,0,80,1,1,79
,,,,,,,,,,,,,,,,,,,,,,,,,,,,,,,,,,,g,1.822999954,AG,FALSE,,,,,,,105,aigua,Catalan,Sounds/cat_aigua.mp3,2020-06-13_16h18.19.035,TranslationElicitation_spa,3.2.4,Win32,60,5ee3df5052f1050b1ae6fe50,,1,0,80,1,1,79
,,,,,,,,,,,,,,,,,,,,,,,,,,,,,,,,,,,u,1.970999956,AGU,FALSE,,,,,,,105,aigua,Catalan,Sounds/cat_aigua.mp3,2020-06-13_16h18.19.035,TranslationElicitation_spa,3.2.4,Win32,60,5ee3df5052f1050b1ae6fe50,,1,0,80,1,1,79
,,,,,,,,,,,,,,,,,,,,,,,,,,,,,,,,,,,a,2.104000092,AGUA,FALSE,,,,,,,105,aigua,Catalan,Sounds/cat_aigua.mp3,2020-06-13_16h18.19.035,TranslationElicitation_spa,3.2.4,Win32,60,5ee3df5052f1050b1ae6fe50,,1,0,80,1,1,79
,,,,,,,,,,,,,,,,,,,,,,,,,,,,,,,,,,,return,2.289000034,,FALSE,,,,,,,105,aigua,Catalan,Sounds/cat_aigua.mp3,2020-06-13_16h18.19.035,TranslationElicitation_spa,3.2.4,Win32,60,5ee3df5052f1050b1ae6fe50,2.289000034,1,0,80,1,1,79
,,,,,,,,,,,,,,,,,,,,,,,,,,,,,,,,,,,,,,,,,,,,,105,aigua,Catalan,Sounds/cat_aigua.mp3,2020-06-13_16h18.19.035,TranslationElicitation_spa,3.2.4,Win32,60,5ee3df5052f1050b1ae6fe50,,1,0,80,1,1,79
,,,,,,,,,,,,,,,,,,,,,,,,,,,,,,,,,,,h,1.631999969,H,FALSE,,,,,,,135,formiga,Catalan,Sounds/cat_formiga.mp3,2020-06-13_16h18.19.035,TranslationElicitation_spa,3.2.4,Win32,60,5ee3df5052f1050b1ae6fe50,,1,0,80,30,1,79
,,,,,,,,,,,,,,,,,,,,,,,,,,,,,,,,,,,o,1.782000065,HO,FALSE,,,,,,,135,formiga,Catalan,Sounds/cat_formiga.mp3,2020-06-13_16h18.19.035,TranslationElicitation_spa,3.2.4,Win32,60,5ee3df5052f1050b1ae6fe50,,1,0,80,30,1,79
,,,,,,,,,,,,,,,,,,,,,,,,,,,,,,,,,,,r,1.964999914,HOR,FALSE,,,,,,,135,formiga,Catalan,Sounds/cat_formiga.mp3,2020-06-13_16h18.19.035,TranslationElicitation_spa,3.2.4,Win32,60,5ee3df5052f1050b1ae6fe50,,1,0,80,30,1,79
,,,,,,,,,,,,,,,,,,,,,,,,,,,,,,,,,,,m,2.115999937,HORM,FALSE,,,,,,,135,formiga,Catalan,Sounds/cat_formiga.mp3,2020-06-13_16h18.19.035,TranslationElicitation_spa,3.2.4,Win32,60,5ee3df5052f1050b1ae6fe50,,1,0,80,30,1,79
,,,,,,,,,,,,,,,,,,,,,,,,,,,,,,,,,,,i,2.264999866,HORMI,FALSE,,,,,,,135,formiga,Catalan,Sounds/cat_formiga.mp3,2020-06-13_16h18.19.035,TranslationElicitation_spa,3.2.4,Win32,60,5ee3df5052f1050b1ae6fe50,,1,0,80,30,1,79
,,,,,,,,,,,,,,,,,,,,,,,,,,,,,,,,,,,a,2.460000038,HORMIA,FALSE,,,,,,,135,formiga,Catalan,Sounds/cat_formiga.mp3,2020-06-13_16h18.19.035,TranslationElicitation_spa,3.2.4,Win32,60,5ee3df5052f1050b1ae6fe50,,1,0,80,30,1,79
,,,,,,,,,,,,,,,,,,,,,,,,,,,,,,,,,,,backspace,3.207000017,HORM,TRUE,,,,,,,135,formiga,Catalan,Sounds/cat_formiga.mp3,2020-06-13_16h18.19.035,TranslationElicitation_spa,3.2.4,Win32,60,5ee3df5052f1050b1ae6fe50,,1,0,80,30,1,79
,,,,,,,,,,,,,,,,,,,,,,,,,,,,,,,,,,,g,3.634000063,HORMG,TRUE,,,,,,,135,formiga,Catalan,Sounds/cat_formiga.mp3,2020-06-13_16h18.19.035,TranslationElicitation_spa,3.2.4,Win32,60,5ee3df5052f1050b1ae6fe50,,1,0,80,30,1,79
,,,,,,,,,,,,,,,,,,,,,,,,,,,,,,,,,,,backspace,4.092999935,HOR,TRUE,,,,,,,135,formiga,Catalan,Sounds/cat_formiga.mp3,2020-06-13_16h18.19.035,TranslationElicitation_spa,3.2.4,Win32,60,5ee3df5052f1050b1ae6fe50,,1,0,80,30,1,79
,,,,,,,,,,,,,,,,,,,,,,,,,,,,,,,,,,,o,4.371999979,HORO,TRUE,,,,,,,135,formiga,Catalan,Sounds/cat_formiga.mp3,2020-06-13_16h18.19.035,TranslationElicitation_spa,3.2.4,Win32,60,5ee3df5052f1050b1ae6fe50,,1,0,80,30,1,79
,,,,,,,,,,,,,,,,,,,,,,,,,,,,,,,,,,,backspace,4.878999949,HO,TRUE,,,,,,,135,formiga,Catalan,Sounds/cat_formiga.mp3,2020-06-13_16h18.19.035,TranslationElicitation_spa,3.2.4,Win32,60,5ee3df5052f1050b1ae6fe50,,1,0,80,30,1,79
,,,,,,,,,,,,,,,,,,,,,,,,,,,,,,,,,,,backspace,4.987999916,,TRUE,,,,,,,135,formiga,Catalan,Sounds/cat_formiga.mp3,2020-06-13_16h18.19.035,TranslationElicitation_spa,3.2.4,Win32,60,5ee3df5052f1050b1ae6fe50,,1,0,80,30,1,79
,,,,,,,,,,,,,,,,,,,,,,,,,,,,,,,,,,,backspace,5.181999922,,TRUE,,,,,,,135,formiga,Catalan,Sounds/cat_formiga.mp3,2020-06-13_16h18.19.035,TranslationElicitation_spa,3.2.4,Win32,60,5ee3df5052f1050b1ae6fe50,,1,0,80,30,1,79
,,,,,,,,,,,,,,,,,,,,,,,,,,,,,,,,,,,h,5.71600008,H,TRUE,,,,,,,135,formiga,Catalan,Sounds/cat_formiga.mp3,2020-06-13_16h18.19.035,TranslationElicitation_spa,3.2.4,Win32,60,5ee3df5052f1050b1ae6fe50,,1,0,80,30,1,79
,,,,,,,,,,,,,,,,,,,,,,,,,,,,,,,,,,,o,5.861999989,HO,TRUE,,,,,,,135,formiga,Catalan,Sounds/cat_formiga.mp3,2020-06-13_16h18.19.035,TranslationElicitation_spa,3.2.4,Win32,60,5ee3df5052f1050b1ae6fe50,,1,0,80,30,1,79
,,,,,,,,,,,,,,,,,,,,,,,,,,,,,,,,,,,r,6.006000042,HOR,TRUE,,,,,,,135,formiga,Catalan,Sounds/cat_formiga.mp3,2020-06-13_16h18.19.035,TranslationElicitation_spa,3.2.4,Win32,60,5ee3df5052f1050b1ae6fe50,,1,0,80,30,1,79
,,,,,,,,,,,,,,,,,,,,,,,,,,,,,,,,,,,m,6.108999968,HORM,TRUE,,,,,,,135,formiga,Catalan,Sounds/cat_formiga.mp3,2020-06-13_16h18.19.035,TranslationElicitation_spa,3.2.4,Win32,60,5ee3df5052f1050b1ae6fe50,,1,0,80,30,1,79
,,,,,,,,,,,,,,,,,,,,,,,,,,,,,,,,,,,i,6.274999857,HORMI,TRUE,,,,,,,135,formiga,Catalan,Sounds/cat_formiga.mp3,2020-06-13_16h18.19.035,TranslationElicitation_spa,3.2.4,Win32,60,5ee3df5052f1050b1ae6fe50,,1,0,80,30,1,79
,,,,,,,,,,,,,,,,,,,,,,,,,,,,,,,,,,,g,6.39199996,HORMIG,TRUE,,,,,,,135,formiga,Catalan,Sounds/cat_formiga.mp3,2020-06-13_16h18.19.035,TranslationElicitation_spa,3.2.4,Win32,60,5ee3df5052f1050b1ae6fe50,,1,0,80,30,1,79
,,,,,,,,,,,,,,,,,,,,,,,,,,,,,,,,,,,a,6.546000004,HORMIGA,TRUE,,,,,,,135,formiga,Catalan,Sounds/cat_formiga.mp3,2020-06-13_16h18.19.035,TranslationElicitation_spa,3.2.4,Win32,60,5ee3df5052f1050b1ae6fe50,,1,0,80,30,1,79
,,,,,,,,,,,,,,,,,,,,,,,,,,,,,,,,,,,return,6.917000055,,TRUE,,,,,,,135,formiga,Catalan,Sounds/cat_formiga.mp3,2020-06-13_16h18.19.035,TranslationElicitation_spa,3.2.4,Win32,60,5ee3df5052f1050b1ae6fe50,6.917000055,1,0,80,30,1,79
,,,,,,,,,,,,,,,,,,,,,,,,,,,,,,,,,,,,,,,,,,,,,135,formiga,Catalan,Sounds/cat_formiga.mp3,2020-06-13_16h18.19.035,TranslationElicitation_spa,3.2.4,Win32,60,5ee3df5052f1050b1ae6fe50,,1,0,80,30,1,79
,,,,,,,,,,,,,,,,,,,,,,,,,,,,,,,,,,,t,1.688999891,T,FALSE,,,,,,,183,tren,Catalan,Sounds/cat_tren.mp3,2020-06-13_16h18.19.035,TranslationElicitation_spa,3.2.4,Win32,60,5ee3df5052f1050b1ae6fe50,,1,0,80,74,1,79
,,,,,,,,,,,,,,,,,,,,,,,,,,,,,,,,,,,r,1.889999866,TR,FALSE,,,,,,,183,tren,Catalan,Sounds/cat_tren.mp3,2020-06-13_16h18.19.035,TranslationElicitation_spa,3.2.4,Win32,60,5ee3df5052f1050b1ae6fe50,,1,0,80,74,1,79
,,,,,,,,,,,,,,,,,,,,,,,,,,,,,,,,,,,e,2.072999954,TRE,FALSE,,,,,,,183,tren,Catalan,Sounds/cat_tren.mp3,2020-06-13_16h18.19.035,TranslationElicitation_spa,3.2.4,Win32,60,5ee3df5052f1050b1ae6fe50,,1,0,80,74,1,79
,,,,,,,,,,,,,,,,,,,,,,,,,,,,,,,,,,,n,2.288999796,TREN,FALSE,,,,,,,183,tren,Catalan,Sounds/cat_tren.mp3,2020-06-13_16h18.19.035,TranslationElicitation_spa,3.2.4,Win32,60,5ee3df5052f1050b1ae6fe50,,1,0,80,74,1,79
,,,,,,,,,,,,,,,,,,,,,,,,,,,,,,,,,,,return,2.538999796,,FALSE,,,,,,,183,tren,Catalan,Sounds/cat_tren.mp3,2020-06-13_16h18.19.035,TranslationElicitation_spa,3.2.4,Win32,60,5ee3df5052f1050b1ae6fe50,2.537999868,1,0,80,74,1,79
,,,,,,,,,,,,,,,,,,,,,,,,,,,,,,,,,,,,,,,,,,,,,183,tren,Catalan,Sounds/cat_tren.mp3,2020-06-13_16h18.19.035,TranslationElicitation_spa,3.2.4,Win32,60,5ee3df5052f1050b1ae6fe50,,1,0,80,74,1,79
,,,,,,,,,,,,,,,,,,,,,,,,,,,,,,,,,,,u,7.808999777,U,FALSE,,,,,,,185,ulleres,Catalan,Sounds/cat_ulleres.mp3,2020-06-13_16h18.19.035,TranslationElicitation_spa,3.2.4,Win32,60,5ee3df5052f1050b1ae6fe50,,1,0,80,76,1,79
,,,,,,,,,,,,,,,,,,,,,,,,,,,,,,,,,,,l,8.503999949,UL,FALSE,,,,,,,185,ulleres,Catalan,Sounds/cat_ulleres.mp3,2020-06-13_16h18.19.035,TranslationElicitation_spa,3.2.4,Win32,60,5ee3df5052f1050b1ae6fe50,,1,0,80,76,1,79
,,,,,,,,,,,,,,,,,,,,,,,,,,,,,,,,,,,e,8.599999905,ULE,FALSE,,,,,,,185,ulleres,Catalan,Sounds/cat_ulleres.mp3,2020-06-13_16h18.19.035,TranslationElicitation_spa,3.2.4,Win32,60,5ee3df5052f1050b1ae6fe50,,1,0,80,76,1,79
,,,,,,,,,,,,,,,,,,,,,,,,,,,,,,,,,,,r,8.745999813,ULER,FALSE,,,,,,,185,ulleres,Catalan,Sounds/cat_ulleres.mp3,2020-06-13_16h18.19.035,TranslationElicitation_spa,3.2.4,Win32,60,5ee3df5052f1050b1ae6fe50,,1,0,80,76,1,79
,,,,,,,,,,,,,,,,,,,,,,,,,,,,,,,,,,,a,8.892999887,ULERA,FALSE,,,,,,,185,ulleres,Catalan,Sounds/cat_ulleres.mp3,2020-06-13_16h18.19.035,TranslationElicitation_spa,3.2.4,Win32,60,5ee3df5052f1050b1ae6fe50,,1,0,80,76,1,79
,,,,,,,,,,,,,,,,,,,,,,,,,,,,,,,,,,,s,9.03399992,ULERAS,FALSE,,,,,,,185,ulleres,Catalan,Sounds/cat_ulleres.mp3,2020-06-13_16h18.19.035,TranslationElicitation_spa,3.2.4,Win32,60,5ee3df5052f1050b1ae6fe50,,1,0,80,76,1,79
,,,,,,,,,,,,,,,,,,,,,,,,,,,,,,,,,,,return,9.265999794,,FALSE,,,,,,,185,ulleres,Catalan,Sounds/cat_ulleres.mp3,2020-06-13_16h18.19.035,TranslationElicitation_spa,3.2.4,Win32,60,5ee3df5052f1050b1ae6fe50,9.265999794,1,0,80,76,1,79
,,,,,,,,,,,,,,,,,,,,,,,,,,,,,,,,,,,,,,,,,,,,,185,ulleres,Catalan,Sounds/cat_ulleres.mp3,2020-06-13_16h18.19.035,TranslationElicitation_spa,3.2.4,Win32,60,5ee3df5052f1050b1ae6fe50,,1,0,80,76,1,79
,,,,,,,,,,,,,,,,,,,,,,,,,,,,,,,,,,,c,1.467000008,C,FALSE,,,,,,,126,corona,Catalan,Sounds/cat_corona.mp3,2020-06-13_16h18.19.035,TranslationElicitation_spa,3.2.4,Win32,60,5ee3df5052f1050b1ae6fe50,,1,0,80,21,1,79
,,,,,,,,,,,,,,,,,,,,,,,,,,,,,,,,,,,o,1.567000151,CO,FALSE,,,,,,,126,corona,Catalan,Sounds/cat_corona.mp3,2020-06-13_16h18.19.035,TranslationElicitation_spa,3.2.4,Win32,60,5ee3df5052f1050b1ae6fe50,,1,0,80,21,1,79
,,,,,,,,,,,,,,,,,,,,,,,,,,,,,,,,,,,r,1.850000143,COR,FALSE,,,,,,,126,corona,Catalan,Sounds/cat_corona.mp3,2020-06-13_16h18.19.035,TranslationElicitation_spa,3.2.4,Win32,60,5ee3df5052f1050b1ae6fe50,,1,0,80,21,1,79
,,,,,,,,,,,,,,,,,,,,,,,,,,,,,,,,,,,o,1.942000151,CORO,FALSE,,,,,,,126,corona,Catalan,Sounds/cat_corona.mp3,2020-06-13_16h18.19.035,TranslationElicitation_spa,3.2.4,Win32,60,5ee3df5052f1050b1ae6fe50,,1,0,80,21,1,79
,,,,,,,,,,,,,,,,,,,,,,,,,,,,,,,,,,,n,2.101000071,CORON,FALSE,,,,,,,126,corona,Catalan,Sounds/cat_corona.mp3,2020-06-13_16h18.19.035,TranslationElicitation_spa,3.2.4,Win32,60,5ee3df5052f1050b1ae6fe50,,1,0,80,21,1,79
,,,,,,,,,,,,,,,,,,,,,,,,,,,,,,,,,,,a,2.185000181,CORONA,FALSE,,,,,,,126,corona,Catalan,Sounds/cat_corona.mp3,2020-06-13_16h18.19.035,TranslationElicitation_spa,3.2.4,Win32,60,5ee3df5052f1050b1ae6fe50,,1,0,80,21,1,79
,,,,,,,,,,,,,,,,,,,,,,,,,,,,,,,,,,,return,2.428000212,,FALSE,,,,,,,126,corona,Catalan,Sounds/cat_corona.mp3,2020-06-13_16h18.19.035,TranslationElicitation_spa,3.2.4,Win32,60,5ee3df5052f1050b1ae6fe50,2.428000212,1,0,80,21,1,79
,,,,,,,,,,,,,,,,,,,,,,,,,,,,,,,,,,,,,,,,,,,,,126,corona,Catalan,Sounds/cat_corona.mp3,2020-06-13_16h18.19.035,TranslationElicitation_spa,3.2.4,Win32,60,5ee3df5052f1050b1ae6fe50,,1,0,80,21,1,79
,,,,,,,,,,,,,,,,,,,,,,,,,,,,,,,,,,,t,3.566999912,T,FALSE,,,,,,,182,tomaquet,Catalan,Sounds/cat_tomaquet.mp3,2020-06-13_16h18.19.035,TranslationElicitation_spa,3.2.4,Win32,60,5ee3df5052f1050b1ae6fe50,,1,0,80,73,1,79
,,,,,,,,,,,,,,,,,,,,,,,,,,,,,,,,,,,o,7.433000088,TO,FALSE,,,,,,,182,tomaquet,Catalan,Sounds/cat_tomaquet.mp3,2020-06-13_16h18.19.035,TranslationElicitation_spa,3.2.4,Win32,60,5ee3df5052f1050b1ae6fe50,,1,0,80,73,1,79
,,,,,,,,,,,,,,,,,,,,,,,,,,,,,,,,,,,m,7.950000048,TOM,FALSE,,,,,,,182,tomaquet,Catalan,Sounds/cat_tomaquet.mp3,2020-06-13_16h18.19.035,TranslationElicitation_spa,3.2.4,Win32,60,5ee3df5052f1050b1ae6fe50,,1,0,80,73,1,79
,,,,,,,,,,,,,,,,,,,,,,,,,,,,,,,,,,,a,8.131999969,TOMA,FALSE,,,,,,,182,tomaquet,Catalan,Sounds/cat_tomaquet.mp3,2020-06-13_16h18.19.035,TranslationElicitation_spa,3.2.4,Win32,60,5ee3df5052f1050b1ae6fe50,,1,0,80,73,1,79
,,,,,,,,,,,,,,,,,,,,,,,,,,,,,,,,,,,t,8.554000139,TOMAT,FALSE,,,,,,,182,tomaquet,Catalan,Sounds/cat_tomaquet.mp3,2020-06-13_16h18.19.035,TranslationElicitation_spa,3.2.4,Win32,60,5ee3df5052f1050b1ae6fe50,,1,0,80,73,1,79
,,,,,,,,,,,,,,,,,,,,,,,,,,,,,,,,,,,e,8.709000111,TOMATE,FALSE,,,,,,,182,tomaquet,Catalan,Sounds/cat_tomaquet.mp3,2020-06-13_16h18.19.035,TranslationElicitation_spa,3.2.4,Win32,60,5ee3df5052f1050b1ae6fe50,,1,0,80,73,1,79
,,,,,,,,,,,,,,,,,,,,,,,,,,,,,,,,,,,return,8.970999956,,FALSE,,,,,,,182,tomaquet,Catalan,Sounds/cat_tomaquet.mp3,2020-06-13_16h18.19.035,TranslationElicitation_spa,3.2.4,Win32,60,5ee3df5052f1050b1ae6fe50,8.970999956,1,0,80,73,1,79
,,,,,,,,,,,,,,,,,,,,,,,,,,,,,,,,,,,,,,,,,,,,,182,tomaquet,Catalan,Sounds/cat_tomaquet.mp3,2020-06-13_16h18.19.035,TranslationElicitation_spa,3.2.4,Win32,60,5ee3df5052f1050b1ae6fe50,,1,0,80,73,1,79
,,,,,,,,,,,,,,,,,,,,,,,,,,,,,,,,,,,g,4.602999926,G,FALSE,,,,,,,145,got,Catalan,Sounds/cat_got.mp3,2020-06-13_16h18.19.035,TranslationElicitation_spa,3.2.4,Win32,60,5ee3df5052f1050b1ae6fe50,,1,0,80,40,1,79
,,,,,,,,,,,,,,,,,,,,,,,,,,,,,,,,,,,o,4.687000036,GO,FALSE,,,,,,,145,got,Catalan,Sounds/cat_got.mp3,2020-06-13_16h18.19.035,TranslationElicitation_spa,3.2.4,Win32,60,5ee3df5052f1050b1ae6fe50,,1,0,80,40,1,79
,,,,,,,,,,,,,,,,,,,,,,,,,,,,,,,,,,,l,5.118000031,GOL,FALSE,,,,,,,145,got,Catalan,Sounds/cat_got.mp3,2020-06-13_16h18.19.035,TranslationElicitation_spa,3.2.4,Win32,60,5ee3df5052f1050b1ae6fe50,,1,0,80,40,1,79
,,,,,,,,,,,,,,,,,,,,,,,,,,,,,,,,,,,return,6.428999901,,FALSE,,,,,,,145,got,Catalan,Sounds/cat_got.mp3,2020-06-13_16h18.19.035,TranslationElicitation_spa,3.2.4,Win32,60,5ee3df5052f1050b1ae6fe50,6.428999901,1,0,80,40,1,79
,,,,,,,,,,,,,,,,,,,,,,,,,,,,,,,,,,,,,,,,,,,,,145,got,Catalan,Sounds/cat_got.mp3,2020-06-13_16h18.19.035,TranslationElicitation_spa,3.2.4,Win32,60,5ee3df5052f1050b1ae6fe50,,1,0,80,40,1,79
,,,,,,,,,,,,,,,,,,,,,,,,,,,,,,,,,,,l,1.735999823,L,FALSE,,,,,,,149,llibre,Catalan,Sounds/cat_llibre.mp3,2020-06-13_16h18.19.035,TranslationElicitation_spa,3.2.4,Win32,60,5ee3df5052f1050b1ae6fe50,,1,0,80,43,1,79
,,,,,,,,,,,,,,,,,,,,,,,,,,,,,,,,,,,i,1.867999792,LI,FALSE,,,,,,,149,llibre,Catalan,Sounds/cat_llibre.mp3,2020-06-13_16h18.19.035,TranslationElicitation_spa,3.2.4,Win32,60,5ee3df5052f1050b1ae6fe50,,1,0,80,43,1,79
,,,,,,,,,,,,,,,,,,,,,,,,,,,,,,,,,,,r,2.241999865,LIR,FALSE,,,,,,,149,llibre,Catalan,Sounds/cat_llibre.mp3,2020-06-13_16h18.19.035,TranslationElicitation_spa,3.2.4,Win32,60,5ee3df5052f1050b1ae6fe50,,1,0,80,43,1,79
,,,,,,,,,,,,,,,,,,,,,,,,,,,,,,,,,,,backspace,2.645999908,L,TRUE,,,,,,,149,llibre,Catalan,Sounds/cat_llibre.mp3,2020-06-13_16h18.19.035,TranslationElicitation_spa,3.2.4,Win32,60,5ee3df5052f1050b1ae6fe50,,1,0,80,43,1,79
,,,,,,,,,,,,,,,,,,,,,,,,,,,,,,,,,,,backspace,3.059000015,,TRUE,,,,,,,149,llibre,Catalan,Sounds/cat_llibre.mp3,2020-06-13_16h18.19.035,TranslationElicitation_spa,3.2.4,Win32,60,5ee3df5052f1050b1ae6fe50,,1,0,80,43,1,79
,,,,,,,,,,,,,,,,,,,,,,,,,,,,,,,,,,,l,3.399999857,L,TRUE,,,,,,,149,llibre,Catalan,Sounds/cat_llibre.mp3,2020-06-13_16h18.19.035,TranslationElicitation_spa,3.2.4,Win32,60,5ee3df5052f1050b1ae6fe50,,1,0,80,43,1,79
,,,,,,,,,,,,,,,,,,,,,,,,,,,,,,,,,,,i,3.666999817,LI,TRUE,,,,,,,149,llibre,Catalan,Sounds/cat_llibre.mp3,2020-06-13_16h18.19.035,TranslationElicitation_spa,3.2.4,Win32,60,5ee3df5052f1050b1ae6fe50,,1,0,80,43,1,79
,,,,,,,,,,,,,,,,,,,,,,,,,,,,,,,,,,,b,4.061999798,LIB,TRUE,,,,,,,149,llibre,Catalan,Sounds/cat_llibre.mp3,2020-06-13_16h18.19.035,TranslationElicitation_spa,3.2.4,Win32,60,5ee3df5052f1050b1ae6fe50,,1,0,80,43,1,79
,,,,,,,,,,,,,,,,,,,,,,,,,,,,,,,,,,,r,4.181999922,LIBR,TRUE,,,,,,,149,llibre,Catalan,Sounds/cat_llibre.mp3,2020-06-13_16h18.19.035,TranslationElicitation_spa,3.2.4,Win32,60,5ee3df5052f1050b1ae6fe50,,1,0,80,43,1,79
,,,,,,,,,,,,,,,,,,,,,,,,,,,,,,,,,,,o,4.571999788,LIBRO,TRUE,,,,,,,149,llibre,Catalan,Sounds/cat_llibre.mp3,2020-06-13_16h18.19.035,TranslationElicitation_spa,3.2.4,Win32,60,5ee3df5052f1050b1ae6fe50,,1,0,80,43,1,79
,,,,,,,,,,,,,,,,,,,,,,,,,,,,,,,,,,,return,5.119999886,,TRUE,,,,,,,149,llibre,Catalan,Sounds/cat_llibre.mp3,2020-06-13_16h18.19.035,TranslationElicitation_spa,3.2.4,Win32,60,5ee3df5052f1050b1ae6fe50,5.119999886,1,0,80,43,1,79
,,,,,,,,,,,,,,,,,,,,,,,,,,,,,,,,,,,,,,,,,,,,,149,llibre,Catalan,Sounds/cat_llibre.mp3,2020-06-13_16h18.19.035,TranslationElicitation_spa,3.2.4,Win32,60,5ee3df5052f1050b1ae6fe50,,1,0,80,43,1,79
,,,,,,,,,,,,,,,,,,,,,,,,,,,,,,,,,,,b,1.851999998,B,FALSE,,,,,,,111,bibero,Catalan,Sounds/cat_bibero.mp3,2020-06-13_16h18.19.035,TranslationElicitation_spa,3.2.4,Win32,60,5ee3df5052f1050b1ae6fe50,,1,0,80,6,1,79
,,,,,,,,,,,,,,,,,,,,,,,,,,,,,,,,,,,i,1.915999889,BI,FALSE,,,,,,,111,bibero,Catalan,Sounds/cat_bibero.mp3,2020-06-13_16h18.19.035,TranslationElicitation_spa,3.2.4,Win32,60,5ee3df5052f1050b1ae6fe50,,1,0,80,6,1,79
,,,,,,,,,,,,,,,,,,,,,,,,,,,,,,,,,,,b,2.100999832,BIB,FALSE,,,,,,,111,bibero,Catalan,Sounds/cat_bibero.mp3,2020-06-13_16h18.19.035,TranslationElicitation_spa,3.2.4,Win32,60,5ee3df5052f1050b1ae6fe50,,1,0,80,6,1,79
,,,,,,,,,,,,,,,,,,,,,,,,,,,,,,,,,,,e,2.358999968,BIBE,FALSE,,,,,,,111,bibero,Catalan,Sounds/cat_bibero.mp3,2020-06-13_16h18.19.035,TranslationElicitation_spa,3.2.4,Win32,60,5ee3df5052f1050b1ae6fe50,,1,0,80,6,1,79
,,,,,,,,,,,,,,,,,,,,,,,,,,,,,,,,,,,r,2.54399991,BIBER,FALSE,,,,,,,111,bibero,Catalan,Sounds/cat_bibero.mp3,2020-06-13_16h18.19.035,TranslationElicitation_spa,3.2.4,Win32,60,5ee3df5052f1050b1ae6fe50,,1,0,80,6,1,79
,,,,,,,,,,,,,,,,,,,,,,,,,,,,,,,,,,,apostrophe,3.983999968,BIBER,FALSE,,,,,,,111,bibero,Catalan,Sounds/cat_bibero.mp3,2020-06-13_16h18.19.035,TranslationElicitation_spa,3.2.4,Win32,60,5ee3df5052f1050b1ae6fe50,,1,0,80,6,1,79
,,,,,,,,,,,,,,,,,,,,,,,,,,,,,,,,,,,o,4.253999949,BIBERÓ,FALSE,,,,,,,111,bibero,Catalan,Sounds/cat_bibero.mp3,2020-06-13_16h18.19.035,TranslationElicitation_spa,3.2.4,Win32,60,5ee3df5052f1050b1ae6fe50,,1,0,80,6,1,79
,,,,,,,,,,,,,,,,,,,,,,,,,,,,,,,,,,,n,4.375,BIBERÓN,FALSE,,,,,,,111,bibero,Catalan,Sounds/cat_bibero.mp3,2020-06-13_16h18.19.035,TranslationElicitation_spa,3.2.4,Win32,60,5ee3df5052f1050b1ae6fe50,,1,0,80,6,1,79
,,,,,,,,,,,,,,,,,,,,,,,,,,,,,,,,,,,return,4.758999825,,FALSE,,,,,,,111,bibero,Catalan,Sounds/cat_bibero.mp3,2020-06-13_16h18.19.035,TranslationElicitation_spa,3.2.4,Win32,60,5ee3df5052f1050b1ae6fe50,4.758999825,1,0,80,6,1,79
,,,,,,,,,,,,,,,,,,,,,,,,,,,,,,,,,,,,,,,,,,,,,111,bibero,Catalan,Sounds/cat_bibero.mp3,2020-06-13_16h18.19.035,TranslationElicitation_spa,3.2.4,Win32,60,5ee3df5052f1050b1ae6fe50,,1,0,80,6,1,79
,,,,,,,,,,,,,,,,,,,,,,,,,,,,,,,,,,,g,3.125,G,FALSE,,,,,,,110,berenar,Catalan,Sounds/cat_berenar.mp3,2020-06-13_16h18.19.035,TranslationElicitation_spa,3.2.4,Win32,60,5ee3df5052f1050b1ae6fe50,,1,0,80,5,1,79
,,,,,,,,,,,,,,,,,,,,,,,,,,,,,,,,,,,r,3.257999897,GR,FALSE,,,,,,,110,berenar,Catalan,Sounds/cat_berenar.mp3,2020-06-13_16h18.19.035,TranslationElicitation_spa,3.2.4,Win32,60,5ee3df5052f1050b1ae6fe50,,1,0,80,5,1,79
,,,,,,,,,,,,,,,,,,,,,,,,,,,,,,,,,,,a,3.493000031,GRA,FALSE,,,,,,,110,berenar,Catalan,Sounds/cat_berenar.mp3,2020-06-13_16h18.19.035,TranslationElicitation_spa,3.2.4,Win32,60,5ee3df5052f1050b1ae6fe50,,1,0,80,5,1,79
,,,,,,,,,,,,,,,,,,,,,,,,,,,,,,,,,,,n,3.659999847,GRAN,FALSE,,,,,,,110,berenar,Catalan,Sounds/cat_berenar.mp3,2020-06-13_16h18.19.035,TranslationElicitation_spa,3.2.4,Win32,60,5ee3df5052f1050b1ae6fe50,,1,0,80,5,1,79
,,,,,,,,,,,,,,,,,,,,,,,,,,,,,,,,,,,a,3.753000021,GRANA,FALSE,,,,,,,110,berenar,Catalan,Sounds/cat_berenar.mp3,2020-06-13_16h18.19.035,TranslationElicitation_spa,3.2.4,Win32,60,5ee3df5052f1050b1ae6fe50,,1,0,80,5,1,79
,,,,,,,,,,,,,,,,,,,,,,,,,,,,,,,,,,,d,4.676999807,GRANAD,FALSE,,,,,,,110,berenar,Catalan,Sounds/cat_berenar.mp3,2020-06-13_16h18.19.035,TranslationElicitation_spa,3.2.4,Win32,60,5ee3df5052f1050b1ae6fe50,,1,0,80,5,1,79
,,,,,,,,,,,,,,,,,,,,,,,,,,,,,,,,,,,a,4.803999901,GRANADA,FALSE,,,,,,,110,berenar,Catalan,Sounds/cat_berenar.mp3,2020-06-13_16h18.19.035,TranslationElicitation_spa,3.2.4,Win32,60,5ee3df5052f1050b1ae6fe50,,1,0,80,5,1,79
,,,,,,,,,,,,,,,,,,,,,,,,,,,,,,,,,,,return,5.092999935,,FALSE,,,,,,,110,berenar,Catalan,Sounds/cat_berenar.mp3,2020-06-13_16h18.19.035,TranslationElicitation_spa,3.2.4,Win32,60,5ee3df5052f1050b1ae6fe50,5.092999935,1,0,80,5,1,79
,,,,,,,,,,,,,,,,,,,,,,,,,,,,,,,,,,,,,,,,,,,,,110,berenar,Catalan,Sounds/cat_berenar.mp3,2020-06-13_16h18.19.035,TranslationElicitation_spa,3.2.4,Win32,60,5ee3df5052f1050b1ae6fe50,,1,0,80,5,1,79
,,,,,,,,,,,,,,,,,,,,,,,,,,,,,,,,,,,c,1.624000072,C,FALSE,,,,,,,119,caixa,Catalan,Sounds/cat_caixa.mp3,2020-06-13_16h18.19.035,TranslationElicitation_spa,3.2.4,Win32,60,5ee3df5052f1050b1ae6fe50,,1,0,80,14,1,79
,,,,,,,,,,,,,,,,,,,,,,,,,,,,,,,,,,,a,1.86500001,CA,FALSE,,,,,,,119,caixa,Catalan,Sounds/cat_caixa.mp3,2020-06-13_16h18.19.035,TranslationElicitation_spa,3.2.4,Win32,60,5ee3df5052f1050b1ae6fe50,,1,0,80,14,1,79
,,,,,,,,,,,,,,,,,,,,,,,,,,,,,,,,,,,s,2.017000198,CAS,FALSE,,,,,,,119,caixa,Catalan,Sounds/cat_caixa.mp3,2020-06-13_16h18.19.035,TranslationElicitation_spa,3.2.4,Win32,60,5ee3df5052f1050b1ae6fe50,,1,0,80,14,1,79
,,,,,,,,,,,,,,,,,,,,,,,,,,,,,,,,,,,a,2.111999989,CASA,FALSE,,,,,,,119,caixa,Catalan,Sounds/cat_caixa.mp3,2020-06-13_16h18.19.035,TranslationElicitation_spa,3.2.4,Win32,60,5ee3df5052f1050b1ae6fe50,,1,0,80,14,1,79
,,,,,,,,,,,,,,,,,,,,,,,,,,,,,,,,,,,return,2.29700017,,FALSE,,,,,,,119,caixa,Catalan,Sounds/cat_caixa.mp3,2020-06-13_16h18.19.035,TranslationElicitation_spa,3.2.4,Win32,60,5ee3df5052f1050b1ae6fe50,2.29700017,1,0,80,14,1,79
,,,,,,,,,,,,,,,,,,,,,,,,,,,,,,,,,,,,,,,,,,,,,119,caixa,Catalan,Sounds/cat_caixa.mp3,2020-06-13_16h18.19.035,TranslationElicitation_spa,3.2.4,Win32,60,5ee3df5052f1050b1ae6fe50,,1,0,80,14,1,79
,,,,,,,,,,,,,,,,,,,,,,,,,,,,,,,,,,,g,2.050000191,G,FALSE,,,,,,,106,aixeta,Catalan,Sounds/cat_aixeta.mp3,2020-06-13_16h18.19.035,TranslationElicitation_spa,3.2.4,Win32,60,5ee3df5052f1050b1ae6fe50,,1,0,80,2,1,79
,,,,,,,,,,,,,,,,,,,,,,,,,,,,,,,,,,,a,2.1650002,GA,FALSE,,,,,,,106,aixeta,Catalan,Sounds/cat_aixeta.mp3,2020-06-13_16h18.19.035,TranslationElicitation_spa,3.2.4,Win32,60,5ee3df5052f1050b1ae6fe50,,1,0,80,2,1,79
,,,,,,,,,,,,,,,,,,,,,,,,,,,,,,,,,,,l,2.656000137,GAL,FALSE,,,,,,,106,aixeta,Catalan,Sounds/cat_aixeta.mp3,2020-06-13_16h18.19.035,TranslationElicitation_spa,3.2.4,Win32,60,5ee3df5052f1050b1ae6fe50,,1,0,80,2,1,79
,,,,,,,,,,,,,,,,,,,,,,,,,,,,,,,,,,,l,2.84100008,GALL,FALSE,,,,,,,106,aixeta,Catalan,Sounds/cat_aixeta.mp3,2020-06-13_16h18.19.035,TranslationElicitation_spa,3.2.4,Win32,60,5ee3df5052f1050b1ae6fe50,,1,0,80,2,1,79
,,,,,,,,,,,,,,,,,,,,,,,,,,,,,,,,,,,e,2.918000221,GALLE,FALSE,,,,,,,106,aixeta,Catalan,Sounds/cat_aixeta.mp3,2020-06-13_16h18.19.035,TranslationElicitation_spa,3.2.4,Win32,60,5ee3df5052f1050b1ae6fe50,,1,0,80,2,1,79
,,,,,,,,,,,,,,,,,,,,,,,,,,,,,,,,,,,t,3.043000221,GALLET,FALSE,,,,,,,106,aixeta,Catalan,Sounds/cat_aixeta.mp3,2020-06-13_16h18.19.035,TranslationElicitation_spa,3.2.4,Win32,60,5ee3df5052f1050b1ae6fe50,,1,0,80,2,1,79
,,,,,,,,,,,,,,,,,,,,,,,,,,,,,,,,,,,a,3.276000023,GALLETA,FALSE,,,,,,,106,aixeta,Catalan,Sounds/cat_aixeta.mp3,2020-06-13_16h18.19.035,TranslationElicitation_spa,3.2.4,Win32,60,5ee3df5052f1050b1ae6fe50,,1,0,80,2,1,79
,,,,,,,,,,,,,,,,,,,,,,,,,,,,,,,,,,,return,3.383000135,,FALSE,,,,,,,106,aixeta,Catalan,Sounds/cat_aixeta.mp3,2020-06-13_16h18.19.035,TranslationElicitation_spa,3.2.4,Win32,60,5ee3df5052f1050b1ae6fe50,3.383000135,1,0,80,2,1,79
,,,,,,,,,,,,,,,,,,,,,,,,,,,,,,,,,,,,,,,,,,,,,106,aixeta,Catalan,Sounds/cat_aixeta.mp3,2020-06-13_16h18.19.035,TranslationElicitation_spa,3.2.4,Win32,60,5ee3df5052f1050b1ae6fe50,,1,0,80,2,1,79
,,,,,,,,,,,,,,,,,,,,,,,,,,,,,,,,,,,s,1.682999849,S,FALSE,,,,,,,177,sol,Catalan,Sounds/cat_sol.mp3,2020-06-13_16h18.19.035,TranslationElicitation_spa,3.2.4,Win32,60,5ee3df5052f1050b1ae6fe50,,1,0,80,69,1,79
,,,,,,,,,,,,,,,,,,,,,,,,,,,,,,,,,,,o,1.828999996,SO,FALSE,,,,,,,177,sol,Catalan,Sounds/cat_sol.mp3,2020-06-13_16h18.19.035,TranslationElicitation_spa,3.2.4,Win32,60,5ee3df5052f1050b1ae6fe50,,1,0,80,69,1,79
,,,,,,,,,,,,,,,,,,,,,,,,,,,,,,,,,,,l,2.038999796,SOL,FALSE,,,,,,,177,sol,Catalan,Sounds/cat_sol.mp3,2020-06-13_16h18.19.035,TranslationElicitation_spa,3.2.4,Win32,60,5ee3df5052f1050b1ae6fe50,,1,0,80,69,1,79
,,,,,,,,,,,,,,,,,,,,,,,,,,,,,,,,,,,return,2.322000027,,FALSE,,,,,,,177,sol,Catalan,Sounds/cat_sol.mp3,2020-06-13_16h18.19.035,TranslationElicitation_spa,3.2.4,Win32,60,5ee3df5052f1050b1ae6fe50,2.322000027,1,0,80,69,1,79
,,,,,,,,,,,,,,,,,,,,,,,,,,,,,,,,,,,,,,,,,,,,,177,sol,Catalan,Sounds/cat_sol.mp3,2020-06-13_16h18.19.035,TranslationElicitation_spa,3.2.4,Win32,60,5ee3df5052f1050b1ae6fe50,,1,0,80,69,1,79
,,,,,,,,,,,,,,,,,,,,,,,,,,,,,,,,,,,t,1.353999853,T,FALSE,,,,,,,178,taronja,Catalan,Sounds/cat_taronja.mp3,2020-06-13_16h18.19.035,TranslationElicitation_spa,3.2.4,Win32,60,5ee3df5052f1050b1ae6fe50,,1,0,80,70,1,79
,,,,,,,,,,,,,,,,,,,,,,,,,,,,,,,,,,,r,1.536999941,TR,FALSE,,,,,,,178,taronja,Catalan,Sounds/cat_taronja.mp3,2020-06-13_16h18.19.035,TranslationElicitation_spa,3.2.4,Win32,60,5ee3df5052f1050b1ae6fe50,,1,0,80,70,1,79
,,,,,,,,,,,,,,,,,,,,,,,,,,,,,,,,,,,a,2.096999884,TRA,FALSE,,,,,,,178,taronja,Catalan,Sounds/cat_taronja.mp3,2020-06-13_16h18.19.035,TranslationElicitation_spa,3.2.4,Win32,60,5ee3df5052f1050b1ae6fe50,,1,0,80,70,1,79
,,,,,,,,,,,,,,,,,,,,,,,,,,,,,,,,,,,j,2.339999914,TRAJ,FALSE,,,,,,,178,taronja,Catalan,Sounds/cat_taronja.mp3,2020-06-13_16h18.19.035,TranslationElicitation_spa,3.2.4,Win32,60,5ee3df5052f1050b1ae6fe50,,1,0,80,70,1,79
,,,,,,,,,,,,,,,,,,,,,,,,,,,,,,,,,,,e,2.508999825,TRAJE,FALSE,,,,,,,178,taronja,Catalan,Sounds/cat_taronja.mp3,2020-06-13_16h18.19.035,TranslationElicitation_spa,3.2.4,Win32,60,5ee3df5052f1050b1ae6fe50,,1,0,80,70,1,79
,,,,,,,,,,,,,,,,,,,,,,,,,,,,,,,,,,,return,2.747999907,,FALSE,,,,,,,178,taronja,Catalan,Sounds/cat_taronja.mp3,2020-06-13_16h18.19.035,TranslationElicitation_spa,3.2.4,Win32,60,5ee3df5052f1050b1ae6fe50,2.747999907,1,0,80,70,1,79
,,,,,,,,,,,,,,,,,,,,,,,,,,,,,,,,,,,,,,,,,,,,,178,taronja,Catalan,Sounds/cat_taronja.mp3,2020-06-13_16h18.19.035,TranslationElicitation_spa,3.2.4,Win32,60,5ee3df5052f1050b1ae6fe50,,1,0,80,70,1,79
,,,,,,,,,,,,,,,,,,,,,,,,,,,,,,,,,,,u,3.998000145,U,FALSE,,,,,,,161,ovella,Catalan,Sounds/cat_ovella.mp3,2020-06-13_16h18.19.035,TranslationElicitation_spa,3.2.4,Win32,60,5ee3df5052f1050b1ae6fe50,,1,0,80,54,1,79
,,,,,,,,,,,,,,,,,,,,,,,,,,,,,,,,,,,v,4.154999971,UV,FALSE,,,,,,,161,ovella,Catalan,Sounds/cat_ovella.mp3,2020-06-13_16h18.19.035,TranslationElicitation_spa,3.2.4,Win32,60,5ee3df5052f1050b1ae6fe50,,1,0,80,54,1,79
,,,,,,,,,,,,,,,,,,,,,,,,,,,,,,,,,,,a,4.447999954,UVA,FALSE,,,,,,,161,ovella,Catalan,Sounds/cat_ovella.mp3,2020-06-13_16h18.19.035,TranslationElicitation_spa,3.2.4,Win32,60,5ee3df5052f1050b1ae6fe50,,1,0,80,54,1,79
,,,,,,,,,,,,,,,,,,,,,,,,,,,,,,,,,,,return,4.773999929,,FALSE,,,,,,,161,ovella,Catalan,Sounds/cat_ovella.mp3,2020-06-13_16h18.19.035,TranslationElicitation_spa,3.2.4,Win32,60,5ee3df5052f1050b1ae6fe50,4.773999929,1,0,80,54,1,79
,,,,,,,,,,,,,,,,,,,,,,,,,,,,,,,,,,,,,,,,,,,,,161,ovella,Catalan,Sounds/cat_ovella.mp3,2020-06-13_16h18.19.035,TranslationElicitation_spa,3.2.4,Win32,60,5ee3df5052f1050b1ae6fe50,,1,0,80,54,1,79
,,,,,,,,,,,,,,,,,,,,,,,,,,,,,,,,,,,g,5.207999945,G,FALSE,,,,,,,141,gerd,Catalan,Sounds/cat_gerd.mp3,2020-06-13_16h18.19.035,TranslationElicitation_spa,3.2.4,Win32,60,5ee3df5052f1050b1ae6fe50,,1,0,80,36,1,79
,,,,,,,,,,,,,,,,,,,,,,,,,,,,,,,,,,,e,5.306999922,GE,FALSE,,,,,,,141,gerd,Catalan,Sounds/cat_gerd.mp3,2020-06-13_16h18.19.035,TranslationElicitation_spa,3.2.4,Win32,60,5ee3df5052f1050b1ae6fe50,,1,0,80,36,1,79
