consentKey.keys,consentKey.rt,languageL1Key.keys,languageL1Key.rt,languageL2,languageL2OralKey.keys,languageL2OralKey.rt,languageL2WrittenKey.keys,languageL2WrittenKey.rt,languageL3OralKey.keys,languageL3OralKey.rt,languageL3WrittenKey.keys,languageL3WrittenKey.rt,languageCatalanOralKey.keys,languageCatalanOralKey.rt,languageCatalanWrittenKey.keys,languageCatalanWrittenKey.rt,languageCatalanTimeKey.keys,languageCatalanTimeKey.rt,age,demoSexKey.keys,demoSexKey.rt,demoEducationKey.keys,demoEducationKey.rt,city,demoVisionKey.keys,demoVisionKey.rt,demoLanguageKey.keys,demoLanguageKey.rt,setupLocationKey.keys,setupLocationKey.rt,setupNoiseKey.keys,setupNoiseKey.rt,instructionsKeys.keys,instructionsKeys.rt,keyPressed,keyPressTime,inputText,error,trials_practice.thisRepN,trials_practice.thisTrialN,trials_practice.thisN,trials_practice.thisIndex,trials_practice.ran,trials_practice.order,trial_id,word,test_language,soundfile,date,expName,psychopyVersion,OS,frameRate,participant,trialOffset,trials.thisRepN,trials.thisTrialN,trials.thisN,trials.thisIndex,trials.ran,trials.order
space,3.179000139,e,7.965000153,,2,10.76100016,4,6.239000082,,,,,1,6.732000113,1,2.250000238,1,7.472000122,18,m,3.533000231,3,6.575000286,MURCIA,n,14.41800022,n,1.998000145,1,3.910000324,1,4.986000299,space,26.1500001,space,3.832999945, ,FALSE,1,0,5,1,1,4,147,jaqueta,Catalan,Sounds/cat_jaqueta.mp3,2020-06-16_10h08.59.496,TranslationElicitation_spa,3.2.4,Win32,60,5ee3df1db2f7190ba57f464a,,,,,,,
,,,,,,,,,,,,,,,,,,,,,,,,,,,,,,,,,,,c,5.601999998, C,FALSE,1,0,5,1,1,4,147,jaqueta,Catalan,Sounds/cat_jaqueta.mp3,2020-06-16_10h08.59.496,TranslationElicitation_spa,3.2.4,Win32,60,5ee3df1db2f7190ba57f464a,,,,,,,
,,,,,,,,,,,,,,,,,,,,,,,,,,,,,,,,,,,h,5.684999943, CH,FALSE,1,0,5,1,1,4,147,jaqueta,Catalan,Sounds/cat_jaqueta.mp3,2020-06-16_10h08.59.496,TranslationElicitation_spa,3.2.4,Win32,60,5ee3df1db2f7190ba57f464a,,,,,,,
,,,,,,,,,,,,,,,,,,,,,,,,,,,,,,,,,,,a,5.852999926, CHA,FALSE,1,0,5,1,1,4,147,jaqueta,Catalan,Sounds/cat_jaqueta.mp3,2020-06-16_10h08.59.496,TranslationElicitation_spa,3.2.4,Win32,60,5ee3df1db2f7190ba57f464a,,,,,,,
,,,,,,,,,,,,,,,,,,,,,,,,,,,,,,,,,,,u,6.785000086, CHAU,FALSE,1,0,5,1,1,4,147,jaqueta,Catalan,Sounds/cat_jaqueta.mp3,2020-06-16_10h08.59.496,TranslationElicitation_spa,3.2.4,Win32,60,5ee3df1db2f7190ba57f464a,,,,,,,
,,,,,,,,,,,,,,,,,,,,,,,,,,,,,,,,,,,backspace,8.039000034, CH,TRUE,1,0,5,1,1,4,147,jaqueta,Catalan,Sounds/cat_jaqueta.mp3,2020-06-16_10h08.59.496,TranslationElicitation_spa,3.2.4,Win32,60,5ee3df1db2f7190ba57f464a,,,,,,,
,,,,,,,,,,,,,,,,,,,,,,,,,,,,,,,,,,,q,8.236999989, CHQ,TRUE,1,0,5,1,1,4,147,jaqueta,Catalan,Sounds/cat_jaqueta.mp3,2020-06-16_10h08.59.496,TranslationElicitation_spa,3.2.4,Win32,60,5ee3df1db2f7190ba57f464a,,,,,,,
,,,,,,,,,,,,,,,,,,,,,,,,,,,,,,,,,,,u,8.45600009, CHQU,TRUE,1,0,5,1,1,4,147,jaqueta,Catalan,Sounds/cat_jaqueta.mp3,2020-06-16_10h08.59.496,TranslationElicitation_spa,3.2.4,Win32,60,5ee3df1db2f7190ba57f464a,,,,,,,
,,,,,,,,,,,,,,,,,,,,,,,,,,,,,,,,,,,e,8.605999947, CHQUE,TRUE,1,0,5,1,1,4,147,jaqueta,Catalan,Sounds/cat_jaqueta.mp3,2020-06-16_10h08.59.496,TranslationElicitation_spa,3.2.4,Win32,60,5ee3df1db2f7190ba57f464a,,,,,,,
,,,,,,,,,,,,,,,,,,,,,,,,,,,,,,,,,,,t,8.773000002, CHQUET,TRUE,1,0,5,1,1,4,147,jaqueta,Catalan,Sounds/cat_jaqueta.mp3,2020-06-16_10h08.59.496,TranslationElicitation_spa,3.2.4,Win32,60,5ee3df1db2f7190ba57f464a,,,,,,,
,,,,,,,,,,,,,,,,,,,,,,,,,,,,,,,,,,,a,8.923000097, CHQUETA,TRUE,1,0,5,1,1,4,147,jaqueta,Catalan,Sounds/cat_jaqueta.mp3,2020-06-16_10h08.59.496,TranslationElicitation_spa,3.2.4,Win32,60,5ee3df1db2f7190ba57f464a,,,,,,,
,,,,,,,,,,,,,,,,,,,,,,,,,,,,,,,,,,,backspace,9.707999945, CHQUE,TRUE,1,0,5,1,1,4,147,jaqueta,Catalan,Sounds/cat_jaqueta.mp3,2020-06-16_10h08.59.496,TranslationElicitation_spa,3.2.4,Win32,60,5ee3df1db2f7190ba57f464a,,,,,,,
,,,,,,,,,,,,,,,,,,,,,,,,,,,,,,,,,,,backspace,9.875, CHQ,TRUE,1,0,5,1,1,4,147,jaqueta,Catalan,Sounds/cat_jaqueta.mp3,2020-06-16_10h08.59.496,TranslationElicitation_spa,3.2.4,Win32,60,5ee3df1db2f7190ba57f464a,,,,,,,
,,,,,,,,,,,,,,,,,,,,,,,,,,,,,,,,,,,backspace,10.04200006, C,TRUE,1,0,5,1,1,4,147,jaqueta,Catalan,Sounds/cat_jaqueta.mp3,2020-06-16_10h08.59.496,TranslationElicitation_spa,3.2.4,Win32,60,5ee3df1db2f7190ba57f464a,,,,,,,
,,,,,,,,,,,,,,,,,,,,,,,,,,,,,,,,,,,h,10.92499995, CH,TRUE,1,0,5,1,1,4,147,jaqueta,Catalan,Sounds/cat_jaqueta.mp3,2020-06-16_10h08.59.496,TranslationElicitation_spa,3.2.4,Win32,60,5ee3df1db2f7190ba57f464a,,,,,,,
,,,,,,,,,,,,,,,,,,,,,,,,,,,,,,,,,,,a,11.09299994, CHA,TRUE,1,0,5,1,1,4,147,jaqueta,Catalan,Sounds/cat_jaqueta.mp3,2020-06-16_10h08.59.496,TranslationElicitation_spa,3.2.4,Win32,60,5ee3df1db2f7190ba57f464a,,,,,,,
,,,,,,,,,,,,,,,,,,,,,,,,,,,,,,,,,,,q,11.29400015, CHAQ,TRUE,1,0,5,1,1,4,147,jaqueta,Catalan,Sounds/cat_jaqueta.mp3,2020-06-16_10h08.59.496,TranslationElicitation_spa,3.2.4,Win32,60,5ee3df1db2f7190ba57f464a,,,,,,,
,,,,,,,,,,,,,,,,,,,,,,,,,,,,,,,,,,,u,11.41100001, CHAQU,TRUE,1,0,5,1,1,4,147,jaqueta,Catalan,Sounds/cat_jaqueta.mp3,2020-06-16_10h08.59.496,TranslationElicitation_spa,3.2.4,Win32,60,5ee3df1db2f7190ba57f464a,,,,,,,
,,,,,,,,,,,,,,,,,,,,,,,,,,,,,,,,,,,e,11.56100011, CHAQUE,TRUE,1,0,5,1,1,4,147,jaqueta,Catalan,Sounds/cat_jaqueta.mp3,2020-06-16_10h08.59.496,TranslationElicitation_spa,3.2.4,Win32,60,5ee3df1db2f7190ba57f464a,,,,,,,
,,,,,,,,,,,,,,,,,,,,,,,,,,,,,,,,,,,t,11.77800012, CHAQUET,TRUE,1,0,5,1,1,4,147,jaqueta,Catalan,Sounds/cat_jaqueta.mp3,2020-06-16_10h08.59.496,TranslationElicitation_spa,3.2.4,Win32,60,5ee3df1db2f7190ba57f464a,,,,,,,
,,,,,,,,,,,,,,,,,,,,,,,,,,,,,,,,,,,a,11.96000004, CHAQUETA,TRUE,1,0,5,1,1,4,147,jaqueta,Catalan,Sounds/cat_jaqueta.mp3,2020-06-16_10h08.59.496,TranslationElicitation_spa,3.2.4,Win32,60,5ee3df1db2f7190ba57f464a,,,,,,,
,,,,,,,,,,,,,,,,,,,,,,,,,,,,,,,,,,,return,12.31200004,,TRUE,1,0,5,1,1,4,147,jaqueta,Catalan,Sounds/cat_jaqueta.mp3,2020-06-16_10h08.59.496,TranslationElicitation_spa,3.2.4,Win32,60,5ee3df1db2f7190ba57f464a,12.31200004,,,,,,
,,,,,,,,,,,,,,,,,,,,,,,,,,,,,,,,,,,,,,,1,0,5,1,1,4,147,jaqueta,Catalan,Sounds/cat_jaqueta.mp3,2020-06-16_10h08.59.496,TranslationElicitation_spa,3.2.4,Win32,60,5ee3df1db2f7190ba57f464a,,,,,,,
,,,,,,,,,,,,,,,,,,,,,,,,,,,,,,,,,,,t,4.667000055,T,FALSE,1,0,5,4,1,4,179,tigre,Catalan,Sounds/cat_tigre.mp3,2020-06-16_10h08.59.496,TranslationElicitation_spa,3.2.4,Win32,60,5ee3df1db2f7190ba57f464a,,,,,,,
,,,,,,,,,,,,,,,,,,,,,,,,,,,,,,,,,,,i,4.883000135,TI,FALSE,1,0,5,4,1,4,179,tigre,Catalan,Sounds/cat_tigre.mp3,2020-06-16_10h08.59.496,TranslationElicitation_spa,3.2.4,Win32,60,5ee3df1db2f7190ba57f464a,,,,,,,
,,,,,,,,,,,,,,,,,,,,,,,,,,,,,,,,,,,g,5.317000151,TIG,FALSE,1,0,5,4,1,4,179,tigre,Catalan,Sounds/cat_tigre.mp3,2020-06-16_10h08.59.496,TranslationElicitation_spa,3.2.4,Win32,60,5ee3df1db2f7190ba57f464a,,,,,,,
,,,,,,,,,,,,,,,,,,,,,,,,,,,,,,,,,,,r,5.5,TIGR,FALSE,1,0,5,4,1,4,179,tigre,Catalan,Sounds/cat_tigre.mp3,2020-06-16_10h08.59.496,TranslationElicitation_spa,3.2.4,Win32,60,5ee3df1db2f7190ba57f464a,,,,,,,
,,,,,,,,,,,,,,,,,,,,,,,,,,,,,,,,,,,e,5.717000008,TIGRE,FALSE,1,0,5,4,1,4,179,tigre,Catalan,Sounds/cat_tigre.mp3,2020-06-16_10h08.59.496,TranslationElicitation_spa,3.2.4,Win32,60,5ee3df1db2f7190ba57f464a,,,,,,,
,,,,,,,,,,,,,,,,,,,,,,,,,,,,,,,,,,,return,6.101000071,,FALSE,1,0,5,4,1,4,179,tigre,Catalan,Sounds/cat_tigre.mp3,2020-06-16_10h08.59.496,TranslationElicitation_spa,3.2.4,Win32,60,5ee3df1db2f7190ba57f464a,6.101000071,,,,,,
,,,,,,,,,,,,,,,,,,,,,,,,,,,,,,,,,,,,,,,1,0,5,4,1,4,179,tigre,Catalan,Sounds/cat_tigre.mp3,2020-06-16_10h08.59.496,TranslationElicitation_spa,3.2.4,Win32,60,5ee3df1db2f7190ba57f464a,,,,,,,
,,,,,,,,,,,,,,,,,,,,,,,,,,,,,,,,,,,p,1.468999863,P,FALSE,1,0,5,3,1,4,167,pingui,Catalan,Sounds/cat_pingui.mp3,2020-06-16_10h08.59.496,TranslationElicitation_spa,3.2.4,Win32,60,5ee3df1db2f7190ba57f464a,,,,,,,
,,,,,,,,,,,,,,,,,,,,,,,,,,,,,,,,,,,i,1.902999878,PI,FALSE,1,0,5,3,1,4,167,pingui,Catalan,Sounds/cat_pingui.mp3,2020-06-16_10h08.59.496,TranslationElicitation_spa,3.2.4,Win32,60,5ee3df1db2f7190ba57f464a,,,,,,,
,,,,,,,,,,,,,,,,,,,,,,,,,,,,,,,,,,,n,2.169999838,PIN,FALSE,1,0,5,3,1,4,167,pingui,Catalan,Sounds/cat_pingui.mp3,2020-06-16_10h08.59.496,TranslationElicitation_spa,3.2.4,Win32,60,5ee3df1db2f7190ba57f464a,,,,,,,
,,,,,,,,,,,,,,,,,,,,,,,,,,,,,,,,,,,g,2.403999805,PING,FALSE,1,0,5,3,1,4,167,pingui,Catalan,Sounds/cat_pingui.mp3,2020-06-16_10h08.59.496,TranslationElicitation_spa,3.2.4,Win32,60,5ee3df1db2f7190ba57f464a,,,,,,,
,,,,,,,,,,,,,,,,,,,,,,,,,,,,,,,,,,,u,2.517999887,PINGU,FALSE,1,0,5,3,1,4,167,pingui,Catalan,Sounds/cat_pingui.mp3,2020-06-16_10h08.59.496,TranslationElicitation_spa,3.2.4,Win32,60,5ee3df1db2f7190ba57f464a,,,,,,,
,,,,,,,,,,,,,,,,,,,,,,,,,,,,,,,,,,,i,2.703999996,PINGUI,FALSE,1,0,5,3,1,4,167,pingui,Catalan,Sounds/cat_pingui.mp3,2020-06-16_10h08.59.496,TranslationElicitation_spa,3.2.4,Win32,60,5ee3df1db2f7190ba57f464a,,,,,,,
,,,,,,,,,,,,,,,,,,,,,,,,,,,,,,,,,,,n,2.971999884,PINGUIN,FALSE,1,0,5,3,1,4,167,pingui,Catalan,Sounds/cat_pingui.mp3,2020-06-16_10h08.59.496,TranslationElicitation_spa,3.2.4,Win32,60,5ee3df1db2f7190ba57f464a,,,,,,,
,,,,,,,,,,,,,,,,,,,,,,,,,,,,,,,,,,,o,3.187999964,PINGUINO,FALSE,1,0,5,3,1,4,167,pingui,Catalan,Sounds/cat_pingui.mp3,2020-06-16_10h08.59.496,TranslationElicitation_spa,3.2.4,Win32,60,5ee3df1db2f7190ba57f464a,,,,,,,
,,,,,,,,,,,,,,,,,,,,,,,,,,,,,,,,,,,return,3.555999994,,FALSE,1,0,5,3,1,4,167,pingui,Catalan,Sounds/cat_pingui.mp3,2020-06-16_10h08.59.496,TranslationElicitation_spa,3.2.4,Win32,60,5ee3df1db2f7190ba57f464a,3.554999828,,,,,,
,,,,,,,,,,,,,,,,,,,,,,,,,,,,,,,,,,,,,,,1,0,5,3,1,4,167,pingui,Catalan,Sounds/cat_pingui.mp3,2020-06-16_10h08.59.496,TranslationElicitation_spa,3.2.4,Win32,60,5ee3df1db2f7190ba57f464a,,,,,,,
,,,,,,,,,,,,,,,,,,,,,,,,,,,,,,,,,,,a,1.786000013,A,FALSE,1,0,5,0,1,4,109,arbre,Catalan,Sounds/cat_arbre.mp3,2020-06-16_10h08.59.496,TranslationElicitation_spa,3.2.4,Win32,60,5ee3df1db2f7190ba57f464a,,,,,,,
,,,,,,,,,,,,,,,,,,,,,,,,,,,,,,,,,,,r,2.102999926,AR,FALSE,1,0,5,0,1,4,109,arbre,Catalan,Sounds/cat_arbre.mp3,2020-06-16_10h08.59.496,TranslationElicitation_spa,3.2.4,Win32,60,5ee3df1db2f7190ba57f464a,,,,,,,
,,,,,,,,,,,,,,,,,,,,,,,,,,,,,,,,,,,b,2.217999935,ARB,FALSE,1,0,5,0,1,4,109,arbre,Catalan,Sounds/cat_arbre.mp3,2020-06-16_10h08.59.496,TranslationElicitation_spa,3.2.4,Win32,60,5ee3df1db2f7190ba57f464a,,,,,,,
,,,,,,,,,,,,,,,,,,,,,,,,,,,,,,,,,,,o,2.486999989,ARBO,FALSE,1,0,5,0,1,4,109,arbre,Catalan,Sounds/cat_arbre.mp3,2020-06-16_10h08.59.496,TranslationElicitation_spa,3.2.4,Win32,60,5ee3df1db2f7190ba57f464a,,,,,,,
,,,,,,,,,,,,,,,,,,,,,,,,,,,,,,,,,,,l,3.454999924,ARBOL,FALSE,1,0,5,0,1,4,109,arbre,Catalan,Sounds/cat_arbre.mp3,2020-06-16_10h08.59.496,TranslationElicitation_spa,3.2.4,Win32,60,5ee3df1db2f7190ba57f464a,,,,,,,
,,,,,,,,,,,,,,,,,,,,,,,,,,,,,,,,,,,return,3.739000082,,FALSE,1,0,5,0,1,4,109,arbre,Catalan,Sounds/cat_arbre.mp3,2020-06-16_10h08.59.496,TranslationElicitation_spa,3.2.4,Win32,60,5ee3df1db2f7190ba57f464a,3.739000082,,,,,,
,,,,,,,,,,,,,,,,,,,,,,,,,,,,,,,,,,,,,,,1,0,5,0,1,4,109,arbre,Catalan,Sounds/cat_arbre.mp3,2020-06-16_10h08.59.496,TranslationElicitation_spa,3.2.4,Win32,60,5ee3df1db2f7190ba57f464a,,,,,,,
,,,,,,,,,,,,,,,,,,,,,,,,,,,,,,,,,,,h,1.335000038,H,FALSE,1,0,5,2,1,4,159,onada,Catalan,Sounds/cat_onada.mp3,2020-06-16_10h08.59.496,TranslationElicitation_spa,3.2.4,Win32,60,5ee3df1db2f7190ba57f464a,,,,,,,
,,,,,,,,,,,,,,,,,,,,,,,,,,,,,,,,,,,a,1.837000132,HA,FALSE,1,0,5,2,1,4,159,onada,Catalan,Sounds/cat_onada.mp3,2020-06-16_10h08.59.496,TranslationElicitation_spa,3.2.4,Win32,60,5ee3df1db2f7190ba57f464a,,,,,,,
,,,,,,,,,,,,,,,,,,,,,,,,,,,,,,,,,,,d,1.853000164,HAD,FALSE,1,0,5,2,1,4,159,onada,Catalan,Sounds/cat_onada.mp3,2020-06-16_10h08.59.496,TranslationElicitation_spa,3.2.4,Win32,60,5ee3df1db2f7190ba57f464a,,,,,,,
,,,,,,,,,,,,,,,,,,,,,,,,,,,,,,,,,,,a,1.952000141,HADA,FALSE,1,0,5,2,1,4,159,onada,Catalan,Sounds/cat_onada.mp3,2020-06-16_10h08.59.496,TranslationElicitation_spa,3.2.4,Win32,60,5ee3df1db2f7190ba57f464a,,,,,,,
,,,,,,,,,,,,,,,,,,,,,,,,,,,,,,,,,,,return,3.118000031,,FALSE,1,0,5,2,1,4,159,onada,Catalan,Sounds/cat_onada.mp3,2020-06-16_10h08.59.496,TranslationElicitation_spa,3.2.4,Win32,60,5ee3df1db2f7190ba57f464a,3.118000031,,,,,,
,,,,,,,,,,,,,,,,,,,,,,,,,,,,,,,,,,,,,,,1,0,5,2,1,4,159,onada,Catalan,Sounds/cat_onada.mp3,2020-06-16_10h08.59.496,TranslationElicitation_spa,3.2.4,Win32,60,5ee3df1db2f7190ba57f464a,,,,,,,
,,,,,,,,,,,,,,,,,,,,,,,,,,,,,,,,,,,m,2.002000093,M,FALSE,,,,,,,152,ma,Catalan,Sounds/cat_ma.mp3,2020-06-16_10h08.59.496,TranslationElicitation_spa,3.2.4,Win32,60,5ee3df1db2f7190ba57f464a,,1,0,80,46,1,79
,,,,,,,,,,,,,,,,,,,,,,,,,,,,,,,,,,,a,2.118999958,MA,FALSE,,,,,,,152,ma,Catalan,Sounds/cat_ma.mp3,2020-06-16_10h08.59.496,TranslationElicitation_spa,3.2.4,Win32,60,5ee3df1db2f7190ba57f464a,,1,0,80,46,1,79
,,,,,,,,,,,,,,,,,,,,,,,,,,,,,,,,,,,m,2.184000015,MAM,FALSE,,,,,,,152,ma,Catalan,Sounds/cat_ma.mp3,2020-06-16_10h08.59.496,TranslationElicitation_spa,3.2.4,Win32,60,5ee3df1db2f7190ba57f464a,,1,0,80,46,1,79
,,,,,,,,,,,,,,,,,,,,,,,,,,,,,,,,,,,a,2.286000013,MAMA,FALSE,,,,,,,152,ma,Catalan,Sounds/cat_ma.mp3,2020-06-16_10h08.59.496,TranslationElicitation_spa,3.2.4,Win32,60,5ee3df1db2f7190ba57f464a,,1,0,80,46,1,79
,,,,,,,,,,,,,,,,,,,,,,,,,,,,,,,,,,,return,2.686000109,,FALSE,,,,,,,152,ma,Catalan,Sounds/cat_ma.mp3,2020-06-16_10h08.59.496,TranslationElicitation_spa,3.2.4,Win32,60,5ee3df1db2f7190ba57f464a,2.684999943,1,0,80,46,1,79
,,,,,,,,,,,,,,,,,,,,,,,,,,,,,,,,,,,,,,,,,,,,,152,ma,Catalan,Sounds/cat_ma.mp3,2020-06-16_10h08.59.496,TranslationElicitation_spa,3.2.4,Win32,60,5ee3df1db2f7190ba57f464a,,1,0,80,46,1,79
,,,,,,,,,,,,,,,,,,,,,,,,,,,,,,,,,,,m,2.251999855,M,FALSE,,,,,,,154,mirall,Catalan,Sounds/cat_mirall.mp3,2020-06-16_10h08.59.496,TranslationElicitation_spa,3.2.4,Win32,60,5ee3df1db2f7190ba57f464a,,1,0,80,48,1,79
,,,,,,,,,,,,,,,,,,,,,,,,,,,,,,,,,,,i,2.552999973,MI,FALSE,,,,,,,154,mirall,Catalan,Sounds/cat_mirall.mp3,2020-06-16_10h08.59.496,TranslationElicitation_spa,3.2.4,Win32,60,5ee3df1db2f7190ba57f464a,,1,0,80,48,1,79
,,,,,,,,,,,,,,,,,,,,,,,,,,,,,,,,,,,r,4.941999912,MIR,FALSE,,,,,,,154,mirall,Catalan,Sounds/cat_mirall.mp3,2020-06-16_10h08.59.496,TranslationElicitation_spa,3.2.4,Win32,60,5ee3df1db2f7190ba57f464a,,1,0,80,48,1,79
,,,,,,,,,,,,,,,,,,,,,,,,,,,,,,,,,,,a,5.239999771,MIRA,FALSE,,,,,,,154,mirall,Catalan,Sounds/cat_mirall.mp3,2020-06-16_10h08.59.496,TranslationElicitation_spa,3.2.4,Win32,60,5ee3df1db2f7190ba57f464a,,1,0,80,48,1,79
,,,,,,,,,,,,,,,,,,,,,,,,,,,,,,,,,,,r,5.491999865,MIRAR,FALSE,,,,,,,154,mirall,Catalan,Sounds/cat_mirall.mp3,2020-06-16_10h08.59.496,TranslationElicitation_spa,3.2.4,Win32,60,5ee3df1db2f7190ba57f464a,,1,0,80,48,1,79
,,,,,,,,,,,,,,,,,,,,,,,,,,,,,,,,,,,return,5.723999977,,FALSE,,,,,,,154,mirall,Catalan,Sounds/cat_mirall.mp3,2020-06-16_10h08.59.496,TranslationElicitation_spa,3.2.4,Win32,60,5ee3df1db2f7190ba57f464a,5.723999977,1,0,80,48,1,79
,,,,,,,,,,,,,,,,,,,,,,,,,,,,,,,,,,,,,,,,,,,,,154,mirall,Catalan,Sounds/cat_mirall.mp3,2020-06-16_10h08.59.496,TranslationElicitation_spa,3.2.4,Win32,60,5ee3df1db2f7190ba57f464a,,1,0,80,48,1,79
,,,,,,,,,,,,,,,,,,,,,,,,,,,,,,,,,,,c,4.990999937,C,FALSE,,,,,,,125,colom,Catalan,Sounds/cat_colom.mp3,2020-06-16_10h08.59.496,TranslationElicitation_spa,3.2.4,Win32,60,5ee3df1db2f7190ba57f464a,,1,0,80,20,1,79
,,,,,,,,,,,,,,,,,,,,,,,,,,,,,,,,,,,u,5.023999929,CU,FALSE,,,,,,,125,colom,Catalan,Sounds/cat_colom.mp3,2020-06-16_10h08.59.496,TranslationElicitation_spa,3.2.4,Win32,60,5ee3df1db2f7190ba57f464a,,1,0,80,20,1,79
,,,,,,,,,,,,,,,,,,,,,,,,,,,,,,,,,,,l,5.388999939,CUL,FALSE,,,,,,,125,colom,Catalan,Sounds/cat_colom.mp3,2020-06-16_10h08.59.496,TranslationElicitation_spa,3.2.4,Win32,60,5ee3df1db2f7190ba57f464a,,1,0,80,20,1,79
,,,,,,,,,,,,,,,,,,,,,,,,,,,,,,,,,,,o,5.625,CULO,FALSE,,,,,,,125,colom,Catalan,Sounds/cat_colom.mp3,2020-06-16_10h08.59.496,TranslationElicitation_spa,3.2.4,Win32,60,5ee3df1db2f7190ba57f464a,,1,0,80,20,1,79
,,,,,,,,,,,,,,,,,,,,,,,,,,,,,,,,,,,return,5.92599988,,FALSE,,,,,,,125,colom,Catalan,Sounds/cat_colom.mp3,2020-06-16_10h08.59.496,TranslationElicitation_spa,3.2.4,Win32,60,5ee3df1db2f7190ba57f464a,5.92599988,1,0,80,20,1,79
,,,,,,,,,,,,,,,,,,,,,,,,,,,,,,,,,,,,,,,,,,,,,125,colom,Catalan,Sounds/cat_colom.mp3,2020-06-16_10h08.59.496,TranslationElicitation_spa,3.2.4,Win32,60,5ee3df1db2f7190ba57f464a,,1,0,80,20,1,79
,,,,,,,,,,,,,,,,,,,,,,,,,,,,,,,,,,,m,2.229000092,M,FALSE,,,,,,,158,nas,Catalan,Sounds/cat_nas.mp3,2020-06-16_10h08.59.496,TranslationElicitation_spa,3.2.4,Win32,60,5ee3df1db2f7190ba57f464a,,1,0,80,52,1,79
,,,,,,,,,,,,,,,,,,,,,,,,,,,,,,,,,,,a,2.311000109,MA,FALSE,,,,,,,158,nas,Catalan,Sounds/cat_nas.mp3,2020-06-16_10h08.59.496,TranslationElicitation_spa,3.2.4,Win32,60,5ee3df1db2f7190ba57f464a,,1,0,80,52,1,79
,,,,,,,,,,,,,,,,,,,,,,,,,,,,,,,,,,,s,2.462000132,MAS,FALSE,,,,,,,158,nas,Catalan,Sounds/cat_nas.mp3,2020-06-16_10h08.59.496,TranslationElicitation_spa,3.2.4,Win32,60,5ee3df1db2f7190ba57f464a,,1,0,80,52,1,79
,,,,,,,,,,,,,,,,,,,,,,,,,,,,,,,,,,,return,3.179000139,,FALSE,,,,,,,158,nas,Catalan,Sounds/cat_nas.mp3,2020-06-16_10h08.59.496,TranslationElicitation_spa,3.2.4,Win32,60,5ee3df1db2f7190ba57f464a,3.179000139,1,0,80,52,1,79
,,,,,,,,,,,,,,,,,,,,,,,,,,,,,,,,,,,,,,,,,,,,,158,nas,Catalan,Sounds/cat_nas.mp3,2020-06-16_10h08.59.496,TranslationElicitation_spa,3.2.4,Win32,60,5ee3df1db2f7190ba57f464a,,1,0,80,52,1,79
,,,,,,,,,,,,,,,,,,,,,,,,,,,,,,,,,,,c,1.382999897,C,FALSE,,,,,,,138,galeta,Catalan,Sounds/cat_galeta.mp3,2020-06-16_10h08.59.496,TranslationElicitation_spa,3.2.4,Win32,60,5ee3df1db2f7190ba57f464a,,1,0,80,33,1,79
,,,,,,,,,,,,,,,,,,,,,,,,,,,,,,,,,,,o,1.551000118,CO,FALSE,,,,,,,138,galeta,Catalan,Sounds/cat_galeta.mp3,2020-06-16_10h08.59.496,TranslationElicitation_spa,3.2.4,Win32,60,5ee3df1db2f7190ba57f464a,,1,0,80,33,1,79
,,,,,,,,,,,,,,,,,,,,,,,,,,,,,,,,,,,l,1.750999928,COL,FALSE,,,,,,,138,galeta,Catalan,Sounds/cat_galeta.mp3,2020-06-16_10h08.59.496,TranslationElicitation_spa,3.2.4,Win32,60,5ee3df1db2f7190ba57f464a,,1,0,80,33,1,79
,,,,,,,,,,,,,,,,,,,,,,,,,,,,,,,,,,,e,1.917999983,COLE,FALSE,,,,,,,138,galeta,Catalan,Sounds/cat_galeta.mp3,2020-06-16_10h08.59.496,TranslationElicitation_spa,3.2.4,Win32,60,5ee3df1db2f7190ba57f464a,,1,0,80,33,1,79
,,,,,,,,,,,,,,,,,,,,,,,,,,,,,,,,,,,t,2.535000086,COLET,FALSE,,,,,,,138,galeta,Catalan,Sounds/cat_galeta.mp3,2020-06-16_10h08.59.496,TranslationElicitation_spa,3.2.4,Win32,60,5ee3df1db2f7190ba57f464a,,1,0,80,33,1,79
,,,,,,,,,,,,,,,,,,,,,,,,,,,,,,,,,,,a,2.684000015,COLETA,FALSE,,,,,,,138,galeta,Catalan,Sounds/cat_galeta.mp3,2020-06-16_10h08.59.496,TranslationElicitation_spa,3.2.4,Win32,60,5ee3df1db2f7190ba57f464a,,1,0,80,33,1,79
,,,,,,,,,,,,,,,,,,,,,,,,,,,,,,,,,,,return,3.604000092,,FALSE,,,,,,,138,galeta,Catalan,Sounds/cat_galeta.mp3,2020-06-16_10h08.59.496,TranslationElicitation_spa,3.2.4,Win32,60,5ee3df1db2f7190ba57f464a,3.604000092,1,0,80,33,1,79
,,,,,,,,,,,,,,,,,,,,,,,,,,,,,,,,,,,,,,,,,,,,,138,galeta,Catalan,Sounds/cat_galeta.mp3,2020-06-16_10h08.59.496,TranslationElicitation_spa,3.2.4,Win32,60,5ee3df1db2f7190ba57f464a,,1,0,80,33,1,79
,,,,,,,,,,,,,,,,,,,,,,,,,,,,,,,,,,,o,1.799999952,O,FALSE,,,,,,,143,globus,Catalan,Sounds/cat_globus.mp3,2020-06-16_10h08.59.496,TranslationElicitation_spa,3.2.4,Win32,60,5ee3df1db2f7190ba57f464a,,1,0,80,38,1,79
,,,,,,,,,,,,,,,,,,,,,,,,,,,,,,,,,,,backspace,2.25,,TRUE,,,,,,,143,globus,Catalan,Sounds/cat_globus.mp3,2020-06-16_10h08.59.496,TranslationElicitation_spa,3.2.4,Win32,60,5ee3df1db2f7190ba57f464a,,1,0,80,38,1,79
,,,,,,,,,,,,,,,,,,,,,,,,,,,,,,,,,,,backspace,2.41899991,,TRUE,,,,,,,143,globus,Catalan,Sounds/cat_globus.mp3,2020-06-16_10h08.59.496,TranslationElicitation_spa,3.2.4,Win32,60,5ee3df1db2f7190ba57f464a,,1,0,80,38,1,79
,,,,,,,,,,,,,,,,,,,,,,,,,,,,,,,,,,,g,2.65199995,G,TRUE,,,,,,,143,globus,Catalan,Sounds/cat_globus.mp3,2020-06-16_10h08.59.496,TranslationElicitation_spa,3.2.4,Win32,60,5ee3df1db2f7190ba57f464a,,1,0,80,38,1,79
,,,,,,,,,,,,,,,,,,,,,,,,,,,,,,,,,,,l,2.735999823,GL,TRUE,,,,,,,143,globus,Catalan,Sounds/cat_globus.mp3,2020-06-16_10h08.59.496,TranslationElicitation_spa,3.2.4,Win32,60,5ee3df1db2f7190ba57f464a,,1,0,80,38,1,79
,,,,,,,,,,,,,,,,,,,,,,,,,,,,,,,,,,,o,2.919999838,GLO,TRUE,,,,,,,143,globus,Catalan,Sounds/cat_globus.mp3,2020-06-16_10h08.59.496,TranslationElicitation_spa,3.2.4,Win32,60,5ee3df1db2f7190ba57f464a,,1,0,80,38,1,79
,,,,,,,,,,,,,,,,,,,,,,,,,,,,,,,,,,,b,3.735999823,GLOB,TRUE,,,,,,,143,globus,Catalan,Sounds/cat_globus.mp3,2020-06-16_10h08.59.496,TranslationElicitation_spa,3.2.4,Win32,60,5ee3df1db2f7190ba57f464a,,1,0,80,38,1,79
,,,,,,,,,,,,,,,,,,,,,,,,,,,,,,,,,,,o,4.438999891,GLOBO,TRUE,,,,,,,143,globus,Catalan,Sounds/cat_globus.mp3,2020-06-16_10h08.59.496,TranslationElicitation_spa,3.2.4,Win32,60,5ee3df1db2f7190ba57f464a,,1,0,80,38,1,79
,,,,,,,,,,,,,,,,,,,,,,,,,,,,,,,,,,,return,4.688999891,,TRUE,,,,,,,143,globus,Catalan,Sounds/cat_globus.mp3,2020-06-16_10h08.59.496,TranslationElicitation_spa,3.2.4,Win32,60,5ee3df1db2f7190ba57f464a,4.687999964,1,0,80,38,1,79
,,,,,,,,,,,,,,,,,,,,,,,,,,,,,,,,,,,,,,,,,,,,,143,globus,Catalan,Sounds/cat_globus.mp3,2020-06-16_10h08.59.496,TranslationElicitation_spa,3.2.4,Win32,60,5ee3df1db2f7190ba57f464a,,1,0,80,38,1,79
,,,,,,,,,,,,,,,,,,,,,,,,,,,,,,,,,,,p,6.157000065,P,FALSE,,,,,,,171,pollastre,Catalan,Sounds/cat_pollastre.mp3,2020-06-16_10h08.59.496,TranslationElicitation_spa,3.2.4,Win32,60,5ee3df1db2f7190ba57f464a,,1,0,80,63,1,79
,,,,,,,,,,,,,,,,,,,,,,,,,,,,,,,,,,,u,6.442000151,PU,FALSE,,,,,,,171,pollastre,Catalan,Sounds/cat_pollastre.mp3,2020-06-16_10h08.59.496,TranslationElicitation_spa,3.2.4,Win32,60,5ee3df1db2f7190ba57f464a,,1,0,80,63,1,79
,,,,,,,,,,,,,,,,,,,,,,,,,,,,,,,,,,,l,6.707999945,PUL,FALSE,,,,,,,171,pollastre,Catalan,Sounds/cat_pollastre.mp3,2020-06-16_10h08.59.496,TranslationElicitation_spa,3.2.4,Win32,60,5ee3df1db2f7190ba57f464a,,1,0,80,63,1,79
,,,,,,,,,,,,,,,,,,,,,,,,,,,,,,,,,,,i,6.993000031,PULI,FALSE,,,,,,,171,pollastre,Catalan,Sounds/cat_pollastre.mp3,2020-06-16_10h08.59.496,TranslationElicitation_spa,3.2.4,Win32,60,5ee3df1db2f7190ba57f464a,,1,0,80,63,1,79
,,,,,,,,,,,,,,,,,,,,,,,,,,,,,,,,,,,r,7.694000006,PULIR,FALSE,,,,,,,171,pollastre,Catalan,Sounds/cat_pollastre.mp3,2020-06-16_10h08.59.496,TranslationElicitation_spa,3.2.4,Win32,60,5ee3df1db2f7190ba57f464a,,1,0,80,63,1,79
,,,,,,,,,,,,,,,,,,,,,,,,,,,,,,,,,,,return,9.361999989,,FALSE,,,,,,,171,pollastre,Catalan,Sounds/cat_pollastre.mp3,2020-06-16_10h08.59.496,TranslationElicitation_spa,3.2.4,Win32,60,5ee3df1db2f7190ba57f464a,9.361999989,1,0,80,63,1,79
,,,,,,,,,,,,,,,,,,,,,,,,,,,,,,,,,,,,,,,,,,,,,171,pollastre,Catalan,Sounds/cat_pollastre.mp3,2020-06-16_10h08.59.496,TranslationElicitation_spa,3.2.4,Win32,60,5ee3df1db2f7190ba57f464a,,1,0,80,63,1,79
,,,,,,,,,,,,,,,,,,,,,,,,,,,,,,,,,,,t,3.768000126,T,FALSE,,,,,,,180,tisores,Catalan,Sounds/cat_tisores.mp3,2020-06-16_10h08.59.496,TranslationElicitation_spa,3.2.4,Win32,60,5ee3df1db2f7190ba57f464a,,1,0,80,71,1,79
,,,,,,,,,,,,,,,,,,,,,,,,,,,,,,,,,,,i,3.970000029,TI,FALSE,,,,,,,180,tisores,Catalan,Sounds/cat_tisores.mp3,2020-06-16_10h08.59.496,TranslationElicitation_spa,3.2.4,Win32,60,5ee3df1db2f7190ba57f464a,,1,0,80,71,1,79
,,,,,,,,,,,,,,,,,,,,,,,,,,,,,,,,,,,r,4.486999989,TIR,FALSE,,,,,,,180,tisores,Catalan,Sounds/cat_tisores.mp3,2020-06-16_10h08.59.496,TranslationElicitation_spa,3.2.4,Win32,60,5ee3df1db2f7190ba57f464a,,1,0,80,71,1,79
,,,,,,,,,,,,,,,,,,,,,,,,,,,,,,,,,,,a,4.920000076,TIRA,FALSE,,,,,,,180,tisores,Catalan,Sounds/cat_tisores.mp3,2020-06-16_10h08.59.496,TranslationElicitation_spa,3.2.4,Win32,60,5ee3df1db2f7190ba57f464a,,1,0,80,71,1,79
,,,,,,,,,,,,,,,,,,,,,,,,,,,,,,,,,,,r,5.236999989,TIRAR,FALSE,,,,,,,180,tisores,Catalan,Sounds/cat_tisores.mp3,2020-06-16_10h08.59.496,TranslationElicitation_spa,3.2.4,Win32,60,5ee3df1db2f7190ba57f464a,,1,0,80,71,1,79
,,,,,,,,,,,,,,,,,,,,,,,,,,,,,,,,,,,return,5.673000097,,FALSE,,,,,,,180,tisores,Catalan,Sounds/cat_tisores.mp3,2020-06-16_10h08.59.496,TranslationElicitation_spa,3.2.4,Win32,60,5ee3df1db2f7190ba57f464a,5.671999931,1,0,80,71,1,79
,,,,,,,,,,,,,,,,,,,,,,,,,,,,,,,,,,,,,,,,,,,,,180,tisores,Catalan,Sounds/cat_tisores.mp3,2020-06-16_10h08.59.496,TranslationElicitation_spa,3.2.4,Win32,60,5ee3df1db2f7190ba57f464a,,1,0,80,71,1,79
,,,,,,,,,,,,,,,,,,,,,,,,,,,,,,,,,,,y,5.64199996,Y,FALSE,,,,,,,148,lleo,Catalan,Sounds/cat_lleo.mp3,2020-06-16_10h08.59.496,TranslationElicitation_spa,3.2.4,Win32,60,5ee3df1db2f7190ba57f464a,,1,0,80,42,1,79
,,,,,,,,,,,,,,,,,,,,,,,,,,,,,,,,,,,o,5.890999794,YO,FALSE,,,,,,,148,lleo,Catalan,Sounds/cat_lleo.mp3,2020-06-16_10h08.59.496,TranslationElicitation_spa,3.2.4,Win32,60,5ee3df1db2f7190ba57f464a,,1,0,80,42,1,79
,,,,,,,,,,,,,,,,,,,,,,,,,,,,,,,,,,,g,6.023000002,YOG,FALSE,,,,,,,148,lleo,Catalan,Sounds/cat_lleo.mp3,2020-06-16_10h08.59.496,TranslationElicitation_spa,3.2.4,Win32,60,5ee3df1db2f7190ba57f464a,,1,0,80,42,1,79
,,,,,,,,,,,,,,,,,,,,,,,,,,,,,,,,,,,u,6.760999918,YOGU,FALSE,,,,,,,148,lleo,Catalan,Sounds/cat_lleo.mp3,2020-06-16_10h08.59.496,TranslationElicitation_spa,3.2.4,Win32,60,5ee3df1db2f7190ba57f464a,,1,0,80,42,1,79
,,,,,,,,,,,,,,,,,,,,,,,,,,,,,,,,,,,r,6.990999937,YOGUR,FALSE,,,,,,,148,lleo,Catalan,Sounds/cat_lleo.mp3,2020-06-16_10h08.59.496,TranslationElicitation_spa,3.2.4,Win32,60,5ee3df1db2f7190ba57f464a,,1,0,80,42,1,79
,,,,,,,,,,,,,,,,,,,,,,,,,,,,,,,,,,,return,7.174999952,,FALSE,,,,,,,148,lleo,Catalan,Sounds/cat_lleo.mp3,2020-06-16_10h08.59.496,TranslationElicitation_spa,3.2.4,Win32,60,5ee3df1db2f7190ba57f464a,7.174999952,1,0,80,42,1,79
,,,,,,,,,,,,,,,,,,,,,,,,,,,,,,,,,,,,,,,,,,,,,148,lleo,Catalan,Sounds/cat_lleo.mp3,2020-06-16_10h08.59.496,TranslationElicitation_spa,3.2.4,Win32,60,5ee3df1db2f7190ba57f464a,,1,0,80,42,1,79
,,,,,,,,,,,,,,,,,,,,,,,,,,,,,,,,,,,e,1.953000069,E,FALSE,,,,,,,175,raspall,Catalan,Sounds/cat_raspall.mp3,2020-06-16_10h08.59.496,TranslationElicitation_spa,3.2.4,Win32,60,5ee3df1db2f7190ba57f464a,,1,0,80,67,1,79
,,,,,,,,,,,,,,,,,,,,,,,,,,,,,,,,,,,s,2.186000109,ES,FALSE,,,,,,,175,raspall,Catalan,Sounds/cat_raspall.mp3,2020-06-16_10h08.59.496,TranslationElicitation_spa,3.2.4,Win32,60,5ee3df1db2f7190ba57f464a,,1,0,80,67,1,79
,,,,,,,,,,,,,,,,,,,,,,,,,,,,,,,,,,,backspace,2.753999949,,TRUE,,,,,,,175,raspall,Catalan,Sounds/cat_raspall.mp3,2020-06-16_10h08.59.496,TranslationElicitation_spa,3.2.4,Win32,60,5ee3df1db2f7190ba57f464a,,1,0,80,67,1,79
,,,,,,,,,,,,,,,,,,,,,,,,,,,,,,,,,,,backspace,2.920000076,,TRUE,,,,,,,175,raspall,Catalan,Sounds/cat_raspall.mp3,2020-06-16_10h08.59.496,TranslationElicitation_spa,3.2.4,Win32,60,5ee3df1db2f7190ba57f464a,,1,0,80,67,1,79
,,,,,,,,,,,,,,,,,,,,,,,,,,,,,,,,,,,backspace,3.086999893,,TRUE,,,,,,,175,raspall,Catalan,Sounds/cat_raspall.mp3,2020-06-16_10h08.59.496,TranslationElicitation_spa,3.2.4,Win32,60,5ee3df1db2f7190ba57f464a,,1,0,80,67,1,79
,,,,,,,,,,,,,,,,,,,,,,,,,,,,,,,,,,,r,3.286000013,R,TRUE,,,,,,,175,raspall,Catalan,Sounds/cat_raspall.mp3,2020-06-16_10h08.59.496,TranslationElicitation_spa,3.2.4,Win32,60,5ee3df1db2f7190ba57f464a,,1,0,80,67,1,79
,,,,,,,,,,,,,,,,,,,,,,,,,,,,,,,,,,,a,3.805000067,RA,TRUE,,,,,,,175,raspall,Catalan,Sounds/cat_raspall.mp3,2020-06-16_10h08.59.496,TranslationElicitation_spa,3.2.4,Win32,60,5ee3df1db2f7190ba57f464a,,1,0,80,67,1,79
,,,,,,,,,,,,,,,,,,,,,,,,,,,,,,,,,,,s,3.972000122,RAS,TRUE,,,,,,,175,raspall,Catalan,Sounds/cat_raspall.mp3,2020-06-16_10h08.59.496,TranslationElicitation_spa,3.2.4,Win32,60,5ee3df1db2f7190ba57f464a,,1,0,80,67,1,79
,,,,,,,,,,,,,,,,,,,,,,,,,,,,,,,,,,,p,4.072999954,RASP,TRUE,,,,,,,175,raspall,Catalan,Sounds/cat_raspall.mp3,2020-06-16_10h08.59.496,TranslationElicitation_spa,3.2.4,Win32,60,5ee3df1db2f7190ba57f464a,,1,0,80,67,1,79
,,,,,,,,,,,,,,,,,,,,,,,,,,,,,,,,,,,a,4.572999954,RASPA,TRUE,,,,,,,175,raspall,Catalan,Sounds/cat_raspall.mp3,2020-06-16_10h08.59.496,TranslationElicitation_spa,3.2.4,Win32,60,5ee3df1db2f7190ba57f464a,,1,0,80,67,1,79
,,,,,,,,,,,,,,,,,,,,,,,,,,,,,,,,,,,r,4.855000019,RASPAR,TRUE,,,,,,,175,raspall,Catalan,Sounds/cat_raspall.mp3,2020-06-16_10h08.59.496,TranslationElicitation_spa,3.2.4,Win32,60,5ee3df1db2f7190ba57f464a,,1,0,80,67,1,79
,,,,,,,,,,,,,,,,,,,,,,,,,,,,,,,,,,,return,5.058000088,,TRUE,,,,,,,175,raspall,Catalan,Sounds/cat_raspall.mp3,2020-06-16_10h08.59.496,TranslationElicitation_spa,3.2.4,Win32,60,5ee3df1db2f7190ba57f464a,5.058000088,1,0,80,67,1,79
,,,,,,,,,,,,,,,,,,,,,,,,,,,,,,,,,,,,,,,,,,,,,175,raspall,Catalan,Sounds/cat_raspall.mp3,2020-06-16_10h08.59.496,TranslationElicitation_spa,3.2.4,Win32,60,5ee3df1db2f7190ba57f464a,,1,0,80,67,1,79
,,,,,,,,,,,,,,,,,,,,,,,,,,,,,,,,,,,b,3.304000139,B,FALSE,,,,,,,184,ull,Catalan,Sounds/cat_ull.mp3,2020-06-16_10h08.59.496,TranslationElicitation_spa,3.2.4,Win32,60,5ee3df1db2f7190ba57f464a,,1,0,80,75,1,79
,,,,,,,,,,,,,,,,,,,,,,,,,,,,,,,,,,,u,3.486000061,BU,FALSE,,,,,,,184,ull,Catalan,Sounds/cat_ull.mp3,2020-06-16_10h08.59.496,TranslationElicitation_spa,3.2.4,Win32,60,5ee3df1db2f7190ba57f464a,,1,0,80,75,1,79
,,,,,,,,,,,,,,,,,,,,,,,,,,,,,,,,,,,h,3.621999979,BUH,FALSE,,,,,,,184,ull,Catalan,Sounds/cat_ull.mp3,2020-06-16_10h08.59.496,TranslationElicitation_spa,3.2.4,Win32,60,5ee3df1db2f7190ba57f464a,,1,0,80,75,1,79
,,,,,,,,,,,,,,,,,,,,,,,,,,,,,,,,,,,o,4.138000011,BUHO,FALSE,,,,,,,184,ull,Catalan,Sounds/cat_ull.mp3,2020-06-16_10h08.59.496,TranslationElicitation_spa,3.2.4,Win32,60,5ee3df1db2f7190ba57f464a,,1,0,80,75,1,79
,,,,,,,,,,,,,,,,,,,,,,,,,,,,,,,,,,,backspace,5.024000168,BU,TRUE,,,,,,,184,ull,Catalan,Sounds/cat_ull.mp3,2020-06-16_10h08.59.496,TranslationElicitation_spa,3.2.4,Win32,60,5ee3df1db2f7190ba57f464a,,1,0,80,75,1,79
,,,,,,,,,,,,,,,,,,,,,,,,,,,,,,,,,,,backspace,5.173000097,,TRUE,,,,,,,184,ull,Catalan,Sounds/cat_ull.mp3,2020-06-16_10h08.59.496,TranslationElicitation_spa,3.2.4,Win32,60,5ee3df1db2f7190ba57f464a,,1,0,80,75,1,79
,,,,,,,,,,,,,,,,,,,,,,,,,,,,,,,,,,,backspace,5.374000072,,TRUE,,,,,,,184,ull,Catalan,Sounds/cat_ull.mp3,2020-06-16_10h08.59.496,TranslationElicitation_spa,3.2.4,Win32,60,5ee3df1db2f7190ba57f464a,,1,0,80,75,1,79
,,,,,,,,,,,,,,,,,,,,,,,,,,,,,,,,,,,b,6.458000183,B,TRUE,,,,,,,184,ull,Catalan,Sounds/cat_ull.mp3,2020-06-16_10h08.59.496,TranslationElicitation_spa,3.2.4,Win32,60,5ee3df1db2f7190ba57f464a,,1,0,80,75,1,79
,,,,,,,,,,,,,,,,,,,,,,,,,,,,,,,,,,,u,6.626000166,BU,TRUE,,,,,,,184,ull,Catalan,Sounds/cat_ull.mp3,2020-06-16_10h08.59.496,TranslationElicitation_spa,3.2.4,Win32,60,5ee3df1db2f7190ba57f464a,,1,0,80,75,1,79
,,,,,,,,,,,,,,,,,,,,,,,,,,,,,,,,,,,h,6.776000023,BUH,TRUE,,,,,,,184,ull,Catalan,Sounds/cat_ull.mp3,2020-06-16_10h08.59.496,TranslationElicitation_spa,3.2.4,Win32,60,5ee3df1db2f7190ba57f464a,,1,0,80,75,1,79
,,,,,,,,,,,,,,,,,,,,,,,,,,,,,,,,,,,o,6.992000103,BUHO,TRUE,,,,,,,184,ull,Catalan,Sounds/cat_ull.mp3,2020-06-16_10h08.59.496,TranslationElicitation_spa,3.2.4,Win32,60,5ee3df1db2f7190ba57f464a,,1,0,80,75,1,79
,,,,,,,,,,,,,,,,,,,,,,,,,,,,,,,,,,,return,7.310000181,,TRUE,,,,,,,184,ull,Catalan,Sounds/cat_ull.mp3,2020-06-16_10h08.59.496,TranslationElicitation_spa,3.2.4,Win32,60,5ee3df1db2f7190ba57f464a,7.310000181,1,0,80,75,1,79
,,,,,,,,,,,,,,,,,,,,,,,,,,,,,,,,,,,,,,,,,,,,,184,ull,Catalan,Sounds/cat_ull.mp3,2020-06-16_10h08.59.496,TranslationElicitation_spa,3.2.4,Win32,60,5ee3df1db2f7190ba57f464a,,1,0,80,75,1,79
,,,,,,,,,,,,,,,,,,,,,,,,,,,,,,,,,,,a,6.608999968,A,FALSE,,,,,,,115,bolet,Catalan,Sounds/cat_bolet.mp3,2020-06-16_10h08.59.496,TranslationElicitation_spa,3.2.4,Win32,60,5ee3df1db2f7190ba57f464a,,1,0,80,10,1,79
,,,,,,,,,,,,,,,,,,,,,,,,,,,,,,,,,,,u,8.104000092,AU,FALSE,,,,,,,115,bolet,Catalan,Sounds/cat_bolet.mp3,2020-06-16_10h08.59.496,TranslationElicitation_spa,3.2.4,Win32,60,5ee3df1db2f7190ba57f464a,,1,0,80,10,1,79
,,,,,,,,,,,,,,,,,,,,,,,,,,,,,,,,,,,t,8.328999996,AUT,FALSE,,,,,,,115,bolet,Catalan,Sounds/cat_bolet.mp3,2020-06-16_10h08.59.496,TranslationElicitation_spa,3.2.4,Win32,60,5ee3df1db2f7190ba57f464a,,1,0,80,10,1,79
,,,,,,,,,,,,,,,,,,,,,,,,,,,,,,,,,,,o,8.446000099,AUTO,FALSE,,,,,,,115,bolet,Catalan,Sounds/cat_bolet.mp3,2020-06-16_10h08.59.496,TranslationElicitation_spa,3.2.4,Win32,60,5ee3df1db2f7190ba57f464a,,1,0,80,10,1,79
,,,,,,,,,,,,,,,,,,,,,,,,,,,,,,,,,,,b,8.881999969,AUTOB,FALSE,,,,,,,115,bolet,Catalan,Sounds/cat_bolet.mp3,2020-06-16_10h08.59.496,TranslationElicitation_spa,3.2.4,Win32,60,5ee3df1db2f7190ba57f464a,,1,0,80,10,1,79
,,,,,,,,,,,,,,,,,,,,,,,,,,,,,,,,,,,u,9.06400013,AUTOBU,FALSE,,,,,,,115,bolet,Catalan,Sounds/cat_bolet.mp3,2020-06-16_10h08.59.496,TranslationElicitation_spa,3.2.4,Win32,60,5ee3df1db2f7190ba57f464a,,1,0,80,10,1,79
,,,,,,,,,,,,,,,,,,,,,,,,,,,,,,,,,,,s,9.147000074,AUTOBUS,FALSE,,,,,,,115,bolet,Catalan,Sounds/cat_bolet.mp3,2020-06-16_10h08.59.496,TranslationElicitation_spa,3.2.4,Win32,60,5ee3df1db2f7190ba57f464a,,1,0,80,10,1,79
,,,,,,,,,,,,,,,,,,,,,,,,,,,,,,,,,,,return,9.463999987,,FALSE,,,,,,,115,bolet,Catalan,Sounds/cat_bolet.mp3,2020-06-16_10h08.59.496,TranslationElicitation_spa,3.2.4,Win32,60,5ee3df1db2f7190ba57f464a,9.463999987,1,0,80,10,1,79
,,,,,,,,,,,,,,,,,,,,,,,,,,,,,,,,,,,,,,,,,,,,,115,bolet,Catalan,Sounds/cat_bolet.mp3,2020-06-16_10h08.59.496,TranslationElicitation_spa,3.2.4,Win32,60,5ee3df1db2f7190ba57f464a,,1,0,80,10,1,79
,,,,,,,,,,,,,,,,,,,,,,,,,,,,,,,,,,,e,1.760999918,E,FALSE,,,,,,,130,entrepa,Catalan,Sounds/cat_entrepa.mp3,2020-06-16_10h08.59.496,TranslationElicitation_spa,3.2.4,Win32,60,5ee3df1db2f7190ba57f464a,,1,0,80,25,1,79
,,,,,,,,,,,,,,,,,,,,,,,,,,,,,,,,,,,n,1.894999981,EN,FALSE,,,,,,,130,entrepa,Catalan,Sounds/cat_entrepa.mp3,2020-06-16_10h08.59.496,TranslationElicitation_spa,3.2.4,Win32,60,5ee3df1db2f7190ba57f464a,,1,0,80,25,1,79
,,,,,,,,,,,,,,,,,,,,,,,,,,,,,,,,,,,r,2.228999853,ENR,FALSE,,,,,,,130,entrepa,Catalan,Sounds/cat_entrepa.mp3,2020-06-16_10h08.59.496,TranslationElicitation_spa,3.2.4,Win32,60,5ee3df1db2f7190ba57f464a,,1,0,80,25,1,79
,,,,,,,,,,,,,,,,,,,,,,,,,,,,,,,,,,,backspace,2.579999924,E,TRUE,,,,,,,130,entrepa,Catalan,Sounds/cat_entrepa.mp3,2020-06-16_10h08.59.496,TranslationElicitation_spa,3.2.4,Win32,60,5ee3df1db2f7190ba57f464a,,1,0,80,25,1,79
,,,,,,,,,,,,,,,,,,,,,,,,,,,,,,,,,,,backspace,2.779999971,,TRUE,,,,,,,130,entrepa,Catalan,Sounds/cat_entrepa.mp3,2020-06-16_10h08.59.496,TranslationElicitation_spa,3.2.4,Win32,60,5ee3df1db2f7190ba57f464a,,1,0,80,25,1,79
,,,,,,,,,,,,,,,,,,,,,,,,,,,,,,,,,,,backspace,2.912999868,,TRUE,,,,,,,130,entrepa,Catalan,Sounds/cat_entrepa.mp3,2020-06-16_10h08.59.496,TranslationElicitation_spa,3.2.4,Win32,60,5ee3df1db2f7190ba57f464a,,1,0,80,25,1,79
,,,,,,,,,,,,,,,,,,,,,,,,,,,,,,,,,,,a,3.329999924,A,TRUE,,,,,,,130,entrepa,Catalan,Sounds/cat_entrepa.mp3,2020-06-16_10h08.59.496,TranslationElicitation_spa,3.2.4,Win32,60,5ee3df1db2f7190ba57f464a,,1,0,80,25,1,79
,,,,,,,,,,,,,,,,,,,,,,,,,,,,,,,,,,,t,3.562999964,AT,TRUE,,,,,,,130,entrepa,Catalan,Sounds/cat_entrepa.mp3,2020-06-16_10h08.59.496,TranslationElicitation_spa,3.2.4,Win32,60,5ee3df1db2f7190ba57f464a,,1,0,80,25,1,79
,,,,,,,,,,,,,,,,,,,,,,,,,,,,,,,,,,,r,3.730999947,ATR,TRUE,,,,,,,130,entrepa,Catalan,Sounds/cat_entrepa.mp3,2020-06-16_10h08.59.496,TranslationElicitation_spa,3.2.4,Win32,60,5ee3df1db2f7190ba57f464a,,1,0,80,25,1,79
,,,,,,,,,,,,,,,,,,,,,,,,,,,,,,,,,,,a,3.814999819,ATRA,TRUE,,,,,,,130,entrepa,Catalan,Sounds/cat_entrepa.mp3,2020-06-16_10h08.59.496,TranslationElicitation_spa,3.2.4,Win32,60,5ee3df1db2f7190ba57f464a,,1,0,80,25,1,79
,,,,,,,,,,,,,,,,,,,,,,,,,,,,,,,,,,,p,4.365999937,ATRAP,TRUE,,,,,,,130,entrepa,Catalan,Sounds/cat_entrepa.mp3,2020-06-16_10h08.59.496,TranslationElicitation_spa,3.2.4,Win32,60,5ee3df1db2f7190ba57f464a,,1,0,80,25,1,79
,,,,,,,,,,,,,,,,,,,,,,,,,,,,,,,,,,,a,4.416999817,ATRAPA,TRUE,,,,,,,130,entrepa,Catalan,Sounds/cat_entrepa.mp3,2020-06-16_10h08.59.496,TranslationElicitation_spa,3.2.4,Win32,60,5ee3df1db2f7190ba57f464a,,1,0,80,25,1,79
,,,,,,,,,,,,,,,,,,,,,,,,,,,,,,,,,,,d,4.630999804,ATRAPAD,TRUE,,,,,,,130,entrepa,Catalan,Sounds/cat_entrepa.mp3,2020-06-16_10h08.59.496,TranslationElicitation_spa,3.2.4,Win32,60,5ee3df1db2f7190ba57f464a,,1,0,80,25,1,79
,,,,,,,,,,,,,,,,,,,,,,,,,,,,,,,,,,,o,4.715999842,ATRAPADO,TRUE,,,,,,,130,entrepa,Catalan,Sounds/cat_entrepa.mp3,2020-06-16_10h08.59.496,TranslationElicitation_spa,3.2.4,Win32,60,5ee3df1db2f7190ba57f464a,,1,0,80,25,1,79
,,,,,,,,,,,,,,,,,,,,,,,,,,,,,,,,,,,return,5.06799984,,TRUE,,,,,,,130,entrepa,Catalan,Sounds/cat_entrepa.mp3,2020-06-16_10h08.59.496,TranslationElicitation_spa,3.2.4,Win32,60,5ee3df1db2f7190ba57f464a,5.06799984,1,0,80,25,1,79
,,,,,,,,,,,,,,,,,,,,,,,,,,,,,,,,,,,,,,,,,,,,,130,entrepa,Catalan,Sounds/cat_entrepa.mp3,2020-06-16_10h08.59.496,TranslationElicitation_spa,3.2.4,Win32,60,5ee3df1db2f7190ba57f464a,,1,0,80,25,1,79
,,,,,,,,,,,,,,,,,,,,,,,,,,,,,,,,,,,t,2.066999912,T,FALSE,,,,,,,182,tomaquet,Catalan,Sounds/cat_tomaquet.mp3,2020-06-16_10h08.59.496,TranslationElicitation_spa,3.2.4,Win32,60,5ee3df1db2f7190ba57f464a,,1,0,80,73,1,79
,,,,,,,,,,,,,,,,,,,,,,,,,,,,,,,,,,,o,2.135999918,TO,FALSE,,,,,,,182,tomaquet,Catalan,Sounds/cat_tomaquet.mp3,2020-06-16_10h08.59.496,TranslationElicitation_spa,3.2.4,Win32,60,5ee3df1db2f7190ba57f464a,,1,0,80,73,1,79
,,,,,,,,,,,,,,,,,,,,,,,,,,,,,,,,,,,m,2.316999912,TOM,FALSE,,,,,,,182,tomaquet,Catalan,Sounds/cat_tomaquet.mp3,2020-06-16_10h08.59.496,TranslationElicitation_spa,3.2.4,Win32,60,5ee3df1db2f7190ba57f464a,,1,0,80,73,1,79
,,,,,,,,,,,,,,,,,,,,,,,,,,,,,,,,,,,a,2.652999878,TOMA,FALSE,,,,,,,182,tomaquet,Catalan,Sounds/cat_tomaquet.mp3,2020-06-16_10h08.59.496,TranslationElicitation_spa,3.2.4,Win32,60,5ee3df1db2f7190ba57f464a,,1,0,80,73,1,79
,,,,,,,,,,,,,,,,,,,,,,,,,,,,,,,,,,,t,2.868000031,TOMAT,FALSE,,,,,,,182,tomaquet,Catalan,Sounds/cat_tomaquet.mp3,2020-06-16_10h08.59.496,TranslationElicitation_spa,3.2.4,Win32,60,5ee3df1db2f7190ba57f464a,,1,0,80,73,1,79
,,,,,,,,,,,,,,,,,,,,,,,,,,,,,,,,,,,e,3.001999855,TOMATE,FALSE,,,,,,,182,tomaquet,Catalan,Sounds/cat_tomaquet.mp3,2020-06-16_10h08.59.496,TranslationElicitation_spa,3.2.4,Win32,60,5ee3df1db2f7190ba57f464a,,1,0,80,73,1,79
,,,,,,,,,,,,,,,,,,,,,,,,,,,,,,,,,,,return,3.169999838,,FALSE,,,,,,,182,tomaquet,Catalan,Sounds/cat_tomaquet.mp3,2020-06-16_10h08.59.496,TranslationElicitation_spa,3.2.4,Win32,60,5ee3df1db2f7190ba57f464a,3.169999838,1,0,80,73,1,79
,,,,,,,,,,,,,,,,,,,,,,,,,,,,,,,,,,,,,,,,,,,,,182,tomaquet,Catalan,Sounds/cat_tomaquet.mp3,2020-06-16_10h08.59.496,TranslationElicitation_spa,3.2.4,Win32,60,5ee3df1db2f7190ba57f464a,,1,0,80,73,1,79
,,,,,,,,,,,,,,,,,,,,,,,,,,,,,,,,,,,l,1.982000113,L,FALSE,,,,,,,149,llibre,Catalan,Sounds/cat_llibre.mp3,2020-06-16_10h08.59.496,TranslationElicitation_spa,3.2.4,Win32,60,5ee3df1db2f7190ba57f464a,,1,0,80,43,1,79
,,,,,,,,,,,,,,,,,,,,,,,,,,,,,,,,,,,i,2.200000048,LI,FALSE,,,,,,,149,llibre,Catalan,Sounds/cat_llibre.mp3,2020-06-16_10h08.59.496,TranslationElicitation_spa,3.2.4,Win32,60,5ee3df1db2f7190ba57f464a,,1,0,80,43,1,79
,,,,,,,,,,,,,,,,,,,,,,,,,,,,,,,,,,,b,2.417000055,LIB,FALSE,,,,,,,149,llibre,Catalan,Sounds/cat_llibre.mp3,2020-06-16_10h08.59.496,TranslationElicitation_spa,3.2.4,Win32,60,5ee3df1db2f7190ba57f464a,,1,0,80,43,1,79
,,,,,,,,,,,,,,,,,,,,,,,,,,,,,,,,,,,r,2.568000078,LIBR,FALSE,,,,,,,149,llibre,Catalan,Sounds/cat_llibre.mp3,2020-06-16_10h08.59.496,TranslationElicitation_spa,3.2.4,Win32,60,5ee3df1db2f7190ba57f464a,,1,0,80,43,1,79
,,,,,,,,,,,,,,,,,,,,,,,,,,,,,,,,,,,o,2.667999983,LIBRO,FALSE,,,,,,,149,llibre,Catalan,Sounds/cat_llibre.mp3,2020-06-16_10h08.59.496,TranslationElicitation_spa,3.2.4,Win32,60,5ee3df1db2f7190ba57f464a,,1,0,80,43,1,79
,,,,,,,,,,,,,,,,,,,,,,,,,,,,,,,,,,,return,3.085000038,,FALSE,,,,,,,149,llibre,Catalan,Sounds/cat_llibre.mp3,2020-06-16_10h08.59.496,TranslationElicitation_spa,3.2.4,Win32,60,5ee3df1db2f7190ba57f464a,3.085000038,1,0,80,43,1,79
,,,,,,,,,,,,,,,,,,,,,,,,,,,,,,,,,,,,,,,,,,,,,149,llibre,Catalan,Sounds/cat_llibre.mp3,2020-06-16_10h08.59.496,TranslationElicitation_spa,3.2.4,Win32,60,5ee3df1db2f7190ba57f464a,,1,0,80,43,1,79
,,,,,,,,,,,,,,,,,,,,,,,,,,,,,,,,,,,l,1.319000006,L,FALSE,,,,,,,168,planta,Catalan,Sounds/cat_planta.mp3,2020-06-16_10h08.59.496,TranslationElicitation_spa,3.2.4,Win32,60,5ee3df1db2f7190ba57f464a,,1,0,80,60,1,79
,,,,,,,,,,,,,,,,,,,,,,,,,,,,,,,,,,,a,1.434000015,LA,FALSE,,,,,,,168,planta,Catalan,Sounds/cat_planta.mp3,2020-06-16_10h08.59.496,TranslationElicitation_spa,3.2.4,Win32,60,5ee3df1db2f7190ba57f464a,,1,0,80,60,1,79
,,,,,,,,,,,,,,,,,,,,,,,,,,,,,,,,,,,n,1.73300004,LAN,FALSE,,,,,,,168,planta,Catalan,Sounds/cat_planta.mp3,2020-06-16_10h08.59.496,TranslationElicitation_spa,3.2.4,Win32,60,5ee3df1db2f7190ba57f464a,,1,0,80,60,1,79
,,,,,,,,,,,,,,,,,,,,,,,,,,,,,,,,,,,backspace,2.000999928,L,TRUE,,,,,,,168,planta,Catalan,Sounds/cat_planta.mp3,2020-06-16_10h08.59.496,TranslationElicitation_spa,3.2.4,Win32,60,5ee3df1db2f7190ba57f464a,,1,0,80,60,1,79
,,,,,,,,,,,,,,,,,,,,,,,,,,,,,,,,,,,backspace,2.153000116,,TRUE,,,,,,,168,planta,Catalan,Sounds/cat_planta.mp3,2020-06-16_10h08.59.496,TranslationElicitation_spa,3.2.4,Win32,60,5ee3df1db2f7190ba57f464a,,1,0,80,60,1,79
,,,,,,,,,,,,,,,,,,,,,,,,,,,,,,,,,,,backspace,2.282999992,,TRUE,,,,,,,168,planta,Catalan,Sounds/cat_planta.mp3,2020-06-16_10h08.59.496,TranslationElicitation_spa,3.2.4,Win32,60,5ee3df1db2f7190ba57f464a,,1,0,80,60,1,79
,,,,,,,,,,,,,,,,,,,,,,,,,,,,,,,,,,,p,2.753000021,P,TRUE,,,,,,,168,planta,Catalan,Sounds/cat_planta.mp3,2020-06-16_10h08.59.496,TranslationElicitation_spa,3.2.4,Win32,60,5ee3df1db2f7190ba57f464a,,1,0,80,60,1,79
,,,,,,,,,,,,,,,,,,,,,,,,,,,,,,,,,,,l,2.970000029,PL,TRUE,,,,,,,168,planta,Catalan,Sounds/cat_planta.mp3,2020-06-16_10h08.59.496,TranslationElicitation_spa,3.2.4,Win32,60,5ee3df1db2f7190ba57f464a,,1,0,80,60,1,79
,,,,,,,,,,,,,,,,,,,,,,,,,,,,,,,,,,,a,3.118000031,PLA,TRUE,,,,,,,168,planta,Catalan,Sounds/cat_planta.mp3,2020-06-16_10h08.59.496,TranslationElicitation_spa,3.2.4,Win32,60,5ee3df1db2f7190ba57f464a,,1,0,80,60,1,79
,,,,,,,,,,,,,,,,,,,,,,,,,,,,,,,,,,,n,3.469000101,PLAN,TRUE,,,,,,,168,planta,Catalan,Sounds/cat_planta.mp3,2020-06-16_10h08.59.496,TranslationElicitation_spa,3.2.4,Win32,60,5ee3df1db2f7190ba57f464a,,1,0,80,60,1,79
,,,,,,,,,,,,,,,,,,,,,,,,,,,,,,,,,,,t,3.734999895,PLANT,TRUE,,,,,,,168,planta,Catalan,Sounds/cat_planta.mp3,2020-06-16_10h08.59.496,TranslationElicitation_spa,3.2.4,Win32,60,5ee3df1db2f7190ba57f464a,,1,0,80,60,1,79
,,,,,,,,,,,,,,,,,,,,,,,,,,,,,,,,,,,a,3.837000132,PLANTA,TRUE,,,,,,,168,planta,Catalan,Sounds/cat_planta.mp3,2020-06-16_10h08.59.496,TranslationElicitation_spa,3.2.4,Win32,60,5ee3df1db2f7190ba57f464a,,1,0,80,60,1,79
,,,,,,,,,,,,,,,,,,,,,,,,,,,,,,,,,,,return,4.963999987,,TRUE,,,,,,,168,planta,Catalan,Sounds/cat_planta.mp3,2020-06-16_10h08.59.496,TranslationElicitation_spa,3.2.4,Win32,60,5ee3df1db2f7190ba57f464a,4.963999987,1,0,80,60,1,79
,,,,,,,,,,,,,,,,,,,,,,,,,,,,,,,,,,,,,,,,,,,,,168,planta,Catalan,Sounds/cat_planta.mp3,2020-06-16_10h08.59.496,TranslationElicitation_spa,3.2.4,Win32,60,5ee3df1db2f7190ba57f464a,,1,0,80,60,1,79
,,,,,,,,,,,,,,,,,,,,,,,,,,,,,,,,,,,p,1.785000086,P,FALSE,,,,,,,178,taronja,Catalan,Sounds/cat_taronja.mp3,2020-06-16_10h08.59.496,TranslationElicitation_spa,3.2.4,Win32,60,5ee3df1db2f7190ba57f464a,,1,0,80,70,1,79
,,,,,,,,,,,,,,,,,,,,,,,,,,,,,,,,,,,l,1.983999968,PL,FALSE,,,,,,,178,taronja,Catalan,Sounds/cat_taronja.mp3,2020-06-16_10h08.59.496,TranslationElicitation_spa,3.2.4,Win32,60,5ee3df1db2f7190ba57f464a,,1,0,80,70,1,79
,,,,,,,,,,,,,,,,,,,,,,,,,,,,,,,,,,,a,2.134000063,PLA,FALSE,,,,,,,178,taronja,Catalan,Sounds/cat_taronja.mp3,2020-06-16_10h08.59.496,TranslationElicitation_spa,3.2.4,Win32,60,5ee3df1db2f7190ba57f464a,,1,0,80,70,1,79
,,,,,,,,,,,,,,,,,,,,,,,,,,,,,,,,,,,n,2.38499999,PLAN,FALSE,,,,,,,178,taronja,Catalan,Sounds/cat_taronja.mp3,2020-06-16_10h08.59.496,TranslationElicitation_spa,3.2.4,Win32,60,5ee3df1db2f7190ba57f464a,,1,0,80,70,1,79
,,,,,,,,,,,,,,,,,,,,,,,,,,,,,,,,,,,c,2.571000099,PLANC,FALSE,,,,,,,178,taronja,Catalan,Sounds/cat_taronja.mp3,2020-06-16_10h08.59.496,TranslationElicitation_spa,3.2.4,Win32,60,5ee3df1db2f7190ba57f464a,,1,0,80,70,1,79
,,,,,,,,,,,,,,,,,,,,,,,,,,,,,,,,,,,h,2.720000029,PLANCH,FALSE,,,,,,,178,taronja,Catalan,Sounds/cat_taronja.mp3,2020-06-16_10h08.59.496,TranslationElicitation_spa,3.2.4,Win32,60,5ee3df1db2f7190ba57f464a,,1,0,80,70,1,79
,,,,,,,,,,,,,,,,,,,,,,,,,,,,,,,,,,,a,2.953999996,PLANCHA,FALSE,,,,,,,178,taronja,Catalan,Sounds/cat_taronja.mp3,2020-06-16_10h08.59.496,TranslationElicitation_spa,3.2.4,Win32,60,5ee3df1db2f7190ba57f464a,,1,0,80,70,1,79
,,,,,,,,,,,,,,,,,,,,,,,,,,,,,,,,,,,return,3.219000101,,FALSE,,,,,,,178,taronja,Catalan,Sounds/cat_taronja.mp3,2020-06-16_10h08.59.496,TranslationElicitation_spa,3.2.4,Win32,60,5ee3df1db2f7190ba57f464a,3.219000101,1,0,80,70,1,79
,,,,,,,,,,,,,,,,,,,,,,,,,,,,,,,,,,,,,,,,,,,,,178,taronja,Catalan,Sounds/cat_taronja.mp3,2020-06-16_10h08.59.496,TranslationElicitation_spa,3.2.4,Win32,60,5ee3df1db2f7190ba57f464a,,1,0,80,70,1,79
,,,,,,,,,,,,,,,,,,,,,,,,,,,,,,,,,,,f,1.634000063,F,FALSE,,,,,,,129,dit,Catalan,Sounds/cat_dit.mp3,2020-06-16_10h08.59.496,TranslationElicitation_spa,3.2.4,Win32,60,5ee3df1db2f7190ba57f464a,,1,0,80,24,1,79
,,,,,,,,,,,,,,,,,,,,,,,,,,,,,,,,,,,backspace,2.263000011,,TRUE,,,,,,,129,dit,Catalan,Sounds/cat_dit.mp3,2020-06-16_10h08.59.496,TranslationElicitation_spa,3.2.4,Win32,60,5ee3df1db2f7190ba57f464a,,1,0,80,24,1,79
,,,,,,,,,,,,,,,,,,,,,,,,,,,,,,,,,,,d,2.852999926,D,TRUE,,,,,,,129,dit,Catalan,Sounds/cat_dit.mp3,2020-06-16_10h08.59.496,TranslationElicitation_spa,3.2.4,Win32,60,5ee3df1db2f7190ba57f464a,,1,0,80,24,1,79
,,,,,,,,,,,,,,,,,,,,,,,,,,,,,,,,,,,i,2.986999989,DI,TRUE,,,,,,,129,dit,Catalan,Sounds/cat_dit.mp3,2020-06-16_10h08.59.496,TranslationElicitation_spa,3.2.4,Win32,60,5ee3df1db2f7190ba57f464a,,1,0,80,24,1,79
,,,,,,,,,,,,,,,,,,,,,,,,,,,,,,,,,,,a,3.352999926,DIA,TRUE,,,,,,,129,dit,Catalan,Sounds/cat_dit.mp3,2020-06-16_10h08.59.496,TranslationElicitation_spa,3.2.4,Win32,60,5ee3df1db2f7190ba57f464a,,1,0,80,24,1,79
,,,,,,,,,,,,,,,,,,,,,,,,,,,,,,,,,,,return,3.503000021,,TRUE,,,,,,,129,dit,Catalan,Sounds/cat_dit.mp3,2020-06-16_10h08.59.496,TranslationElicitation_spa,3.2.4,Win32,60,5ee3df1db2f7190ba57f464a,3.503000021,1,0,80,24,1,79
,,,,,,,,,,,,,,,,,,,,,,,,,,,,,,,,,,,,,,,,,,,,,129,dit,Catalan,Sounds/cat_dit.mp3,2020-06-16_10h08.59.496,TranslationElicitation_spa,3.2.4,Win32,60,5ee3df1db2f7190ba57f464a,,1,0,80,24,1,79
,,,,,,,,,,,,,,,,,,,,,,,,,,,,,,,,,,,f,1.552999973,F,FALSE,,,,,,,134,flor,Catalan,Sounds/cat_flor.mp3,2020-06-16_10h08.59.496,TranslationElicitation_spa,3.2.4,Win32,60,5ee3df1db2f7190ba57f464a,,1,0,80,29,1,79
,,,,,,,,,,,,,,,,,,,,,,,,,,,,,,,,,,,l,1.620000124,FL,FALSE,,,,,,,134,flor,Catalan,Sounds/cat_flor.mp3,2020-06-16_10h08.59.496,TranslationElicitation_spa,3.2.4,Win32,60,5ee3df1db2f7190ba57f464a,,1,0,80,29,1,79
,,,,,,,,,,,,,,,,,,,,,,,,,,,,,,,,,,,o,1.801000118,FLO,FALSE,,,,,,,134,flor,Catalan,Sounds/cat_flor.mp3,2020-06-16_10h08.59.496,TranslationElicitation_spa,3.2.4,Win32,60,5ee3df1db2f7190ba57f464a,,1,0,80,29,1,79
,,,,,,,,,,,,,,,,,,,,,,,,,,,,,,,,,,,r,1.937999964,FLOR,FALSE,,,,,,,134,flor,Catalan,Sounds/cat_flor.mp3,2020-06-16_10h08.59.496,TranslationElicitation_spa,3.2.4,Win32,60,5ee3df1db2f7190ba57f464a,,1,0,80,29,1,79
,,,,,,,,,,,,,,,,,,,,,,,,,,,,,,,,,,,return,2.203000069,,FALSE,,,,,,,134,flor,Catalan,Sounds/cat_flor.mp3,2020-06-16_10h08.59.496,TranslationElicitation_spa,3.2.4,Win32,60,5ee3df1db2f7190ba57f464a,2.203000069,1,0,80,29,1,79
,,,,,,,,,,,,,,,,,,,,,,,,,,,,,,,,,,,,,,,,,,,,,134,flor,Catalan,Sounds/cat_flor.mp3,2020-06-16_10h08.59.496,TranslationElicitation_spa,3.2.4,Win32,60,5ee3df1db2f7190ba57f464a,,1,0,80,29,1,79
,,,,,,,,,,,,,,,,,,,,,,,,,,,,,,,,,,,m,1.41899991,M,FALSE,,,,,,,156,moto,Catalan,Sounds/cat_moto.mp3,2020-06-16_10h08.59.496,TranslationElicitation_spa,3.2.4,Win32,60,5ee3df1db2f7190ba57f464a,,1,0,80,50,1,79
,,,,,,,,,,,,,,,,,,,,,,,,,,,,,,,,,,,o,1.93599987,MO,FALSE,,,,,,,156,moto,Catalan,Sounds/cat_moto.mp3,2020-06-16_10h08.59.496,TranslationElicitation_spa,3.2.4,Win32,60,5ee3df1db2f7190ba57f464a,,1,0,80,50,1,79
,,,,,,,,,,,,,,,,,,,,,,,,,,,,,,,,,,,t,2.118999958,MOT,FALSE,,,,,,,156,moto,Catalan,Sounds/cat_moto.mp3,2020-06-16_10h08.59.496,TranslationElicitation_spa,3.2.4,Win32,60,5ee3df1db2f7190ba57f464a,,1,0,80,50,1,79
,,,,,,,,,,,,,,,,,,,,,,,,,,,,,,,,,,,o,2.21999979,MOTO,FALSE,,,,,,,156,moto,Catalan,Sounds/cat_moto.mp3,2020-06-16_10h08.59.496,TranslationElicitation_spa,3.2.4,Win32,60,5ee3df1db2f7190ba57f464a,,1,0,80,50,1,79
,,,,,,,,,,,,,,,,,,,,,,,,,,,,,,,,,,,return,2.502999783,,FALSE,,,,,,,156,moto,Catalan,Sounds/cat_moto.mp3,2020-06-16_10h08.59.496,TranslationElicitation_spa,3.2.4,Win32,60,5ee3df1db2f7190ba57f464a,2.502999783,1,0,80,50,1,79
,,,,,,,,,,,,,,,,,,,,,,,,,,,,,,,,,,,,,,,,,,,,,156,moto,Catalan,Sounds/cat_moto.mp3,2020-06-16_10h08.59.496,TranslationElicitation_spa,3.2.4,Win32,60,5ee3df1db2f7190ba57f464a,,1,0,80,50,1,79
,,,,,,,,,,,,,,,,,,,,,,,,,,,,,,,,,,,b,1.685000181,B,FALSE,,,,,,,117,boto,Catalan,Sounds/cat_boto.mp3,2020-06-16_10h08.59.496,TranslationElicitation_spa,3.2.4,Win32,60,5ee3df1db2f7190ba57f464a,,1,0,80,12,1,79
,,,,,,,,,,,,,,,,,,,,,,,,,,,,,,,,,,,o,1.920000076,BO,FALSE,,,,,,,117,boto,Catalan,Sounds/cat_boto.mp3,2020-06-16_10h08.59.496,TranslationElicitation_spa,3.2.4,Win32,60,5ee3df1db2f7190ba57f464a,,1,0,80,12,1,79
,,,,,,,,,,,,,,,,,,,,,,,,,,,,,,,,,,,t,2.187000036,BOT,FALSE,,,,,,,117,boto,Catalan,Sounds/cat_boto.mp3,2020-06-16_10h08.59.496,TranslationElicitation_spa,3.2.4,Win32,60,5ee3df1db2f7190ba57f464a,,1,0,80,12,1,79
,,,,,,,,,,,,,,,,,,,,,,,,,,,,,,,,,,,o,2.302000046,BOTO,FALSE,,,,,,,117,boto,Catalan,Sounds/cat_boto.mp3,2020-06-16_10h08.59.496,TranslationElicitation_spa,3.2.4,Win32,60,5ee3df1db2f7190ba57f464a,,1,0,80,12,1,79
,,,,,,,,,,,,,,,,,,,,,,,,,,,,,,,,,,,n,2.521000147,BOTON,FALSE,,,,,,,117,boto,Catalan,Sounds/cat_boto.mp3,2020-06-16_10h08.59.496,TranslationElicitation_spa,3.2.4,Win32,60,5ee3df1db2f7190ba57f464a,,1,0,80,12,1,79
,,,,,,,,,,,,,,,,,,,,,,,,,,,,,,,,,,,return,2.835999966,,FALSE,,,,,,,117,boto,Catalan,Sounds/cat_boto.mp3,2020-06-16_10h08.59.496,TranslationElicitation_spa,3.2.4,Win32,60,5ee3df1db2f7190ba57f464a,2.835999966,1,0,80,12,1,79
,,,,,,,,,,,,,,,,,,,,,,,,,,,,,,,,,,,,,,,,,,,,,117,boto,Catalan,Sounds/cat_boto.mp3,2020-06-16_10h08.59.496,TranslationElicitation_spa,3.2.4,Win32,60,5ee3df1db2f7190ba57f464a,,1,0,80,12,1,79
,,,,,,,,,,,,,,,,,,,,,,,,,,,,,,,,,,,b,1.81799984,B,FALSE,,,,,,,111,bibero,Catalan,Sounds/cat_bibero.mp3,2020-06-16_10h08.59.496,TranslationElicitation_spa,3.2.4,Win32,60,5ee3df1db2f7190ba57f464a,,1,0,80,6,1,79
,,,,,,,,,,,,,,,,,,,,,,,,,,,,,,,,,,,i,1.984999895,BI,FALSE,,,,,,,111,bibero,Catalan,Sounds/cat_bibero.mp3,2020-06-16_10h08.59.496,TranslationElicitation_spa,3.2.4,Win32,60,5ee3df1db2f7190ba57f464a,,1,0,80,6,1,79
,,,,,,,,,,,,,,,,,,,,,,,,,,,,,,,,,,,b,2.15199995,BIB,FALSE,,,,,,,111,bibero,Catalan,Sounds/cat_bibero.mp3,2020-06-16_10h08.59.496,TranslationElicitation_spa,3.2.4,Win32,60,5ee3df1db2f7190ba57f464a,,1,0,80,6,1,79
,,,,,,,,,,,,,,,,,,,,,,,,,,,,,,,,,,,e,2.268999815,BIBE,FALSE,,,,,,,111,bibero,Catalan,Sounds/cat_bibero.mp3,2020-06-16_10h08.59.496,TranslationElicitation_spa,3.2.4,Win32,60,5ee3df1db2f7190ba57f464a,,1,0,80,6,1,79
,,,,,,,,,,,,,,,,,,,,,,,,,,,,,,,,,,,r,2.468999863,BIBER,FALSE,,,,,,,111,bibero,Catalan,Sounds/cat_bibero.mp3,2020-06-16_10h08.59.496,TranslationElicitation_spa,3.2.4,Win32,60,5ee3df1db2f7190ba57f464a,,1,0,80,6,1,79
,,,,,,,,,,,,,,,,,,,,,,,,,,,,,,,,,,,o,2.552999973,BIBERO,FALSE,,,,,,,111,bibero,Catalan,Sounds/cat_bibero.mp3,2020-06-16_10h08.59.496,TranslationElicitation_spa,3.2.4,Win32,60,5ee3df1db2f7190ba57f464a,,1,0,80,6,1,79
,,,,,,,,,,,,,,,,,,,,,,,,,,,,,,,,,,,n,2.767999887,BIBERON,FALSE,,,,,,,111,bibero,Catalan,Sounds/cat_bibero.mp3,2020-06-16_10h08.59.496,TranslationElicitation_spa,3.2.4,Win32,60,5ee3df1db2f7190ba57f464a,,1,0,80,6,1,79
,,,,,,,,,,,,,,,,,,,,,,,,,,,,,,,,,,,return,3.138000011,,FALSE,,,,,,,111,bibero,Catalan,Sounds/cat_bibero.mp3,2020-06-16_10h08.59.496,TranslationElicitation_spa,3.2.4,Win32,60,5ee3df1db2f7190ba57f464a,3.138000011,1,0,80,6,1,79
,,,,,,,,,,,,,,,,,,,,,,,,,,,,,,,,,,,,,,,,,,,,,111,bibero,Catalan,Sounds/cat_bibero.mp3,2020-06-16_10h08.59.496,TranslationElicitation_spa,3.2.4,Win32,60,5ee3df1db2f7190ba57f464a,,1,0,80,6,1,79
,,,,,,,,,,,,,,,,,,,,,,,,,,,,,,,,,,,a,2.65199995,A,FALSE,,,,,,,104,abella,Catalan,Sounds/cat_abella.mp3,2020-06-16_10h08.59.496,TranslationElicitation_spa,3.2.4,Win32,60,5ee3df1db2f7190ba57f464a,,1,0,80,0,1,79
,,,,,,,,,,,,,,,,,,,,,,,,,,,,,,,,,,,v,3.118000031,AV,FALSE,,,,,,,104,abella,Catalan,Sounds/cat_abella.mp3,2020-06-16_10h08.59.496,TranslationElicitation_spa,3.2.4,Win32,60,5ee3df1db2f7190ba57f464a,,1,0,80,0,1,79
,,,,,,,,,,,,,,,,,,,,,,,,,,,,,,,,,,,e,3.319000006,AVE,FALSE,,,,,,,104,abella,Catalan,Sounds/cat_abella.mp3,2020-06-16_10h08.59.496,TranslationElicitation_spa,3.2.4,Win32,60,5ee3df1db2f7190ba57f464a,,1,0,80,0,1,79
,,,,,,,,,,,,,,,,,,,,,,,,,,,,,,,,,,,l,3.851999998,AVEL,FALSE,,,,,,,104,abella,Catalan,Sounds/cat_abella.mp3,2020-06-16_10h08.59.496,TranslationElicitation_spa,3.2.4,Win32,60,5ee3df1db2f7190ba57f464a,,1,0,80,0,1,79
,,,,,,,,,,,,,,,,,,,,,,,,,,,,,,,,,,,l,4.003999949,AVELL,FALSE,,,,,,,104,abella,Catalan,Sounds/cat_abella.mp3,2020-06-16_10h08.59.496,TranslationElicitation_spa,3.2.4,Win32,60,5ee3df1db2f7190ba57f464a,,1,0,80,0,1,79
,,,,,,,,,,,,,,,,,,,,,,,,,,,,,,,,,,,a,4.13499999,AVELLA,FALSE,,,,,,,104,abella,Catalan,Sounds/cat_abella.mp3,2020-06-16_10h08.59.496,TranslationElicitation_spa,3.2.4,Win32,60,5ee3df1db2f7190ba57f464a,,1,0,80,0,1,79
,,,,,,,,,,,,,,,,,,,,,,,,,,,,,,,,,,,n,4.220000029,AVELLAN,FALSE,,,,,,,104,abella,Catalan,Sounds/cat_abella.mp3,2020-06-16_10h08.59.496,TranslationElicitation_spa,3.2.4,Win32,60,5ee3df1db2f7190ba57f464a,,1,0,80,0,1,79
,,,,,,,,,,,,,,,,,,,,,,,,,,,,,,,,,,,a,4.336999893,AVELLANA,FALSE,,,,,,,104,abella,Catalan,Sounds/cat_abella.mp3,2020-06-16_10h08.59.496,TranslationElicitation_spa,3.2.4,Win32,60,5ee3df1db2f7190ba57f464a,,1,0,80,0,1,79
,,,,,,,,,,,,,,,,,,,,,,,,,,,,,,,,,,,return,4.503000021,,FALSE,,,,,,,104,abella,Catalan,Sounds/cat_abella.mp3,2020-06-16_10h08.59.496,TranslationElicitation_spa,3.2.4,Win32,60,5ee3df1db2f7190ba57f464a,4.503000021,1,0,80,0,1,79
,,,,,,,,,,,,,,,,,,,,,,,,,,,,,,,,,,,,,,,,,,,,,104,abella,Catalan,Sounds/cat_abella.mp3,2020-06-16_10h08.59.496,TranslationElicitation_spa,3.2.4,Win32,60,5ee3df1db2f7190ba57f464a,,1,0,80,0,1,79
,,,,,,,,,,,,,,,,,,,,,,,,,,,,,,,,,,,a,5.573000193,A,FALSE,,,,,,,141,gerd,Catalan,Sounds/cat_gerd.mp3,2020-06-16_10h08.59.496,TranslationElicitation_spa,3.2.4,Win32,60,5ee3df1db2f7190ba57f464a,,1,0,80,36,1,79
,,,,,,,,,,,,,,,,,,,,,,,,,,,,,,,,,,,y,5.722000122,AY,FALSE,,,,,,,141,gerd,Catalan,Sounds/cat_gerd.mp3,2020-06-16_10h08.59.496,TranslationElicitation_spa,3.2.4,Win32,60,5ee3df1db2f7190ba57f464a,,1,0,80,36,1,79
,,,,,,,,,,,,,,,,,,,,,,,,,,,,,,,,,,,e,5.857000113,AYE,FALSE,,,,,,,141,gerd,Catalan,Sounds/cat_gerd.mp3,2020-06-16_10h08.59.496,TranslationElicitation_spa,3.2.4,Win32,60,5ee3df1db2f7190ba57f464a,,1,0,80,36,1,79
,,,,,,,,,,,,,,,,,,,,,,,,,,,,,,,,,,,r,6.058000088,AYER,FALSE,,,,,,,141,gerd,Catalan,Sounds/cat_gerd.mp3,2020-06-16_10h08.59.496,TranslationElicitation_spa,3.2.4,Win32,60,5ee3df1db2f7190ba57f464a,,1,0,80,36,1,79
,,,,,,,,,,,,,,,,,,,,,,,,,,,,,,,,,,,return,6.190999985,,FALSE,,,,,,,141,gerd,Catalan,Sounds/cat_gerd.mp3,2020-06-16_10h08.59.496,TranslationElicitation_spa,3.2.4,Win32,60,5ee3df1db2f7190ba57f464a,6.190999985,1,0,80,36,1,79
,,,,,,,,,,,,,,,,,,,,,,,,,,,,,,,,,,,,,,,,,,,,,141,gerd,Catalan,Sounds/cat_gerd.mp3,2020-06-16_10h08.59.496,TranslationElicitation_spa,3.2.4,Win32,60,5ee3df1db2f7190ba57f464a,,1,0,80,36,1,79
,,,,,,,,,,,,,,,,,,,,,,,,,,,,,,,,,,,p,2.251000166,P,FALSE,,,,,,,170,ploma,Catalan,Sounds/cat_ploma.mp3,2020-06-16_10h08.59.496,TranslationElicitation_spa,3.2.4,Win32,60,5ee3df1db2f7190ba57f464a,,1,0,80,62,1,79
,,,,,,,,,,,,,,,,,,,,,,,,,,,,,,,,,,,l,2.470000029,PL,FALSE,,,,,,,170,ploma,Catalan,Sounds/cat_ploma.mp3,2020-06-16_10h08.59.496,TranslationElicitation_spa,3.2.4,Win32,60,5ee3df1db2f7190ba57f464a,,1,0,80,62,1,79
,,,,,,,,,,,,,,,,,,,,,,,,,,,,,,,,,,,u,2.735000134,PLU,FALSE,,,,,,,170,ploma,Catalan,Sounds/cat_ploma.mp3,2020-06-16_10h08.59.496,TranslationElicitation_spa,3.2.4,Win32,60,5ee3df1db2f7190ba57f464a,,1,0,80,62,1,79
,,,,,,,,,,,,,,,,,,,,,,,,,,,,,,,,,,,m,2.919000149,PLUM,FALSE,,,,,,,170,ploma,Catalan,Sounds/cat_ploma.mp3,2020-06-16_10h08.59.496,TranslationElicitation_spa,3.2.4,Win32,60,5ee3df1db2f7190ba57f464a,,1,0,80,62,1,79
,,,,,,,,,,,,,,,,,,,,,,,,,,,,,,,,,,,a,3.15199995,PLUMA,FALSE,,,,,,,170,ploma,Catalan,Sounds/cat_ploma.mp3,2020-06-16_10h08.59.496,TranslationElicitation_spa,3.2.4,Win32,60,5ee3df1db2f7190ba57f464a,,1,0,80,62,1,79
,,,,,,,,,,,,,,,,,,,,,,,,,,,,,,,,,,,return,3.504000187,,FALSE,,,,,,,170,ploma,Catalan,Sounds/cat_ploma.mp3,2020-06-16_10h08.59.496,TranslationElicitation_spa,3.2.4,Win32,60,5ee3df1db2f7190ba57f464a,3.504000187,1,0,80,62,1,79
,,,,,,,,,,,,,,,,,,,,,,,,,,,,,,,,,,,,,,,,,,,,,170,ploma,Catalan,Sounds/cat_ploma.mp3,2020-06-16_10h08.59.496,TranslationElicitation_spa,3.2.4,Win32,60,5ee3df1db2f7190ba57f464a,,1,0,80,62,1,79
,,,,,,,,,,,,,,,,,,,,,,,,,,,,,,,,,,,p,2.203000069,P,FALSE,,,,,,,173,porc,Catalan,Sounds/cat_porc.mp3,2020-06-16_10h08.59.496,TranslationElicitation_spa,3.2.4,Win32,60,5ee3df1db2f7190ba57f464a,,1,0,80,65,1,79
,,,,,,,,,,,,,,,,,,,,,,,,,,,,,,,,,,,a,2.336000204,PA,FALSE,,,,,,,173,porc,Catalan,Sounds/cat_porc.mp3,2020-06-16_10h08.59.496,TranslationElicitation_spa,3.2.4,Win32,60,5ee3df1db2f7190ba57f464a,,1,0,80,65,1,79
,,,,,,,,,,,,,,,,,,,,,,,,,,,,,,,,,,,r,3.104000092,PAR,FALSE,,,,,,,173,porc,Catalan,Sounds/cat_porc.mp3,2020-06-16_10h08.59.496,TranslationElicitation_spa,3.2.4,Win32,60,5ee3df1db2f7190ba57f464a,,1,0,80,65,1,79
,,,,,,,,,,,,,,,,,,,,,,,,,,,,,,,,,,,q,3.336000204,PARQ,FALSE,,,,,,,173,porc,Catalan,Sounds/cat_porc.mp3,2020-06-16_10h08.59.496,TranslationElicitation_spa,3.2.4,Win32,60,5ee3df1db2f7190ba57f464a,,1,0,80,65,1,79
,,,,,,,,,,,,,,,,,,,,,,,,,,,,,,,,,,,u,3.472000122,PARQU,FALSE,,,,,,,173,porc,Catalan,Sounds/cat_porc.mp3,2020-06-16_10h08.59.496,TranslationElicitation_spa,3.2.4,Win32,60,5ee3df1db2f7190ba57f464a,,1,0,80,65,1,79
,,,,,,,,,,,,,,,,,,,,,,,,,,,,,,,,,,,e,4.390000105,PARQUE,FALSE,,,,,,,173,porc,Catalan,Sounds/cat_porc.mp3,2020-06-16_10h08.59.496,TranslationElicitation_spa,3.2.4,Win32,60,5ee3df1db2f7190ba57f464a,,1,0,80,65,1,79
,,,,,,,,,,,,,,,,,,,,,,,,,,,,,,,,,,,return,4.588000059,,FALSE,,,,,,,173,porc,Catalan,Sounds/cat_porc.mp3,2020-06-16_10h08.59.496,TranslationElicitation_spa,3.2.4,Win32,60,5ee3df1db2f7190ba57f464a,4.588000059,1,0,80,65,1,79
,,,,,,,,,,,,,,,,,,,,,,,,,,,,,,,,,,,,,,,,,,,,,173,porc,Catalan,Sounds/cat_porc.mp3,2020-06-16_10h08.59.496,TranslationElicitation_spa,3.2.4,Win32,60,5ee3df1db2f7190ba57f464a,,1,0,80,65,1,79
,,,,,,,,,,,,,,,,,,,,,,,,,,,,,,,,,,,g,1.936000109,G,FALSE,,,,,,,144,gorra,Catalan,Sounds/cat_gorra.mp3,2020-06-16_10h08.59.496,TranslationElicitation_spa,3.2.4,Win32,60,5ee3df1db2f7190ba57f464a,,1,0,80,39,1,79
,,,,,,,,,,,,,,,,,,,,,,,,,,,,,,,,,,,o,2.087000132,GO,FALSE,,,,,,,144,gorra,Catalan,Sounds/cat_gorra.mp3,2020-06-16_10h08.59.496,TranslationElicitation_spa,3.2.4,Win32,60,5ee3df1db2f7190ba57f464a,,1,0,80,39,1,79
,,,,,,,,,,,,,,,,,,,,,,,,,,,,,,,,,,,r,2.318000078,GOR,FALSE,,,,,,,144,gorra,Catalan,Sounds/cat_gorra.mp3,2020-06-16_10h08.59.496,TranslationElicitation_spa,3.2.4,Win32,60,5ee3df1db2f7190ba57f464a,,1,0,80,39,1,79
,,,,,,,,,,,,,,,,,,,,,,,,,,,,,,,,,,,r,2.503000021,GORR,FALSE,,,,,,,144,gorra,Catalan,Sounds/cat_gorra.mp3,2020-06-16_10h08.59.496,TranslationElicitation_spa,3.2.4,Win32,60,5ee3df1db2f7190ba57f464a,,1,0,80,39,1,79
,,,,,,,,,,,,,,,,,,,,,,,,,,,,,,,,,,,a,2.788000107,GORRA,FALSE,,,,,,,144,gorra,Catalan,Sounds/cat_gorra.mp3,2020-06-16_10h08.59.496,TranslationElicitation_spa,3.2.4,Win32,60,5ee3df1db2f7190ba57f464a,,1,0,80,39,1,79
,,,,,,,,,,,,,,,,,,,,,,,,,,,,,,,,,,,return,2.919000149,,FALSE,,,,,,,144,gorra,Catalan,Sounds/cat_gorra.mp3,2020-06-16_10h08.59.496,TranslationElicitation_spa,3.2.4,Win32,60,5ee3df1db2f7190ba57f464a,2.919000149,1,0,80,39,1,79
,,,,,,,,,,,,,,,,,,,,,,,,,,,,,,,,,,,,,,,,,,,,,144,gorra,Catalan,Sounds/cat_gorra.mp3,2020-06-16_10h08.59.496,TranslationElicitation_spa,3.2.4,Win32,60,5ee3df1db2f7190ba57f464a,,1,0,80,39,1,79
,,,,,,,,,,,,,,,,,,,,,,,,,,,,,,,,,,,h,1.851000071,H,FALSE,,,,,,,135,formiga,Catalan,Sounds/cat_formiga.mp3,2020-06-16_10h08.59.496,TranslationElicitation_spa,3.2.4,Win32,60,5ee3df1db2f7190ba57f464a,,1,0,80,30,1,79
,,,,,,,,,,,,,,,,,,,,,,,,,,,,,,,,,,,o,2.018000126,HO,FALSE,,,,,,,135,formiga,Catalan,Sounds/cat_formiga.mp3,2020-06-16_10h08.59.496,TranslationElicitation_spa,3.2.4,Win32,60,5ee3df1db2f7190ba57f464a,,1,0,80,30,1,79
,,,,,,,,,,,,,,,,,,,,,,,,,,,,,,,,,,,r,2.117000103,HOR,FALSE,,,,,,,135,formiga,Catalan,Sounds/cat_formiga.mp3,2020-06-16_10h08.59.496,TranslationElicitation_spa,3.2.4,Win32,60,5ee3df1db2f7190ba57f464a,,1,0,80,30,1,79
,,,,,,,,,,,,,,,,,,,,,,,,,,,,,,,,,,,m,2.268000126,HORM,FALSE,,,,,,,135,formiga,Catalan,Sounds/cat_formiga.mp3,2020-06-16_10h08.59.496,TranslationElicitation_spa,3.2.4,Win32,60,5ee3df1db2f7190ba57f464a,,1,0,80,30,1,79
,,,,,,,,,,,,,,,,,,,,,,,,,,,,,,,,,,,i,2.501000166,HORMI,FALSE,,,,,,,135,formiga,Catalan,Sounds/cat_formiga.mp3,2020-06-16_10h08.59.496,TranslationElicitation_spa,3.2.4,Win32,60,5ee3df1db2f7190ba57f464a,,1,0,80,30,1,79
,,,,,,,,,,,,,,,,,,,,,,,,,,,,,,,,,,,g,2.818000078,HORMIG,FALSE,,,,,,,135,formiga,Catalan,Sounds/cat_formiga.mp3,2020-06-16_10h08.59.496,TranslationElicitation_spa,3.2.4,Win32,60,5ee3df1db2f7190ba57f464a,,1,0,80,30,1,79
,,,,,,,,,,,,,,,,,,,,,,,,,,,,,,,,,,,a,2.944000006,HORMIGA,FALSE,,,,,,,135,formiga,Catalan,Sounds/cat_formiga.mp3,2020-06-16_10h08.59.496,TranslationElicitation_spa,3.2.4,Win32,60,5ee3df1db2f7190ba57f464a,,1,0,80,30,1,79
,,,,,,,,,,,,,,,,,,,,,,,,,,,,,,,,,,,return,4.393000126,,FALSE,,,,,,,135,formiga,Catalan,Sounds/cat_formiga.mp3,2020-06-16_10h08.59.496,TranslationElicitation_spa,3.2.4,Win32,60,5ee3df1db2f7190ba57f464a,4.393000126,1,0,80,30,1,79
,,,,,,,,,,,,,,,,,,,,,,,,,,,,,,,,,,,,,,,,,,,,,135,formiga,Catalan,Sounds/cat_formiga.mp3,2020-06-16_10h08.59.496,TranslationElicitation_spa,3.2.4,Win32,60,5ee3df1db2f7190ba57f464a,,1,0,80,30,1,79
,,,,,,,,,,,,,,,,,,,,,,,,,,,,,,,,,,,g,1.777999878,G,FALSE,,,,,,,139,galleda,Catalan,Sounds/cat_galleda.mp3,2020-06-16_10h08.59.496,TranslationElicitation_spa,3.2.4,Win32,60,5ee3df1db2f7190ba57f464a,,1,0,80,34,1,79
,,,,,,,,,,,,,,,,,,,,,,,,,,,,,,,,,,,a,2.176999807,GA,FALSE,,,,,,,139,galleda,Catalan,Sounds/cat_galleda.mp3,2020-06-16_10h08.59.496,TranslationElicitation_spa,3.2.4,Win32,60,5ee3df1db2f7190ba57f464a,,1,0,80,34,1,79
,,,,,,,,,,,,,,,,,,,,,,,,,,,,,,,,,,,l,3.06099987,GAL,FALSE,,,,,,,139,galleda,Catalan,Sounds/cat_galleda.mp3,2020-06-16_10h08.59.496,TranslationElicitation_spa,3.2.4,Win32,60,5ee3df1db2f7190ba57f464a,,1,0,80,34,1,79
,,,,,,,,,,,,,,,,,,,,,,,,,,,,,,,,,,,l,3.212999821,GALL,FALSE,,,,,,,139,galleda,Catalan,Sounds/cat_galleda.mp3,2020-06-16_10h08.59.496,TranslationElicitation_spa,3.2.4,Win32,60,5ee3df1db2f7190ba57f464a,,1,0,80,34,1,79
,,,,,,,,,,,,,,,,,,,,,,,,,,,,,,,,,,,e,3.329999924,GALLE,FALSE,,,,,,,139,galleda,Catalan,Sounds/cat_galleda.mp3,2020-06-16_10h08.59.496,TranslationElicitation_spa,3.2.4,Win32,60,5ee3df1db2f7190ba57f464a,,1,0,80,34,1,79
,,,,,,,,,,,,,,,,,,,,,,,,,,,,,,,,,,,t,3.613999844,GALLET,FALSE,,,,,,,139,galleda,Catalan,Sounds/cat_galleda.mp3,2020-06-16_10h08.59.496,TranslationElicitation_spa,3.2.4,Win32,60,5ee3df1db2f7190ba57f464a,,1,0,80,34,1,79
,,,,,,,,,,,,,,,,,,,,,,,,,,,,,,,,,,,a,3.780999899,GALLETA,FALSE,,,,,,,139,galleda,Catalan,Sounds/cat_galleda.mp3,2020-06-16_10h08.59.496,TranslationElicitation_spa,3.2.4,Win32,60,5ee3df1db2f7190ba57f464a,,1,0,80,34,1,79
,,,,,,,,,,,,,,,,,,,,,,,,,,,,,,,,,,,return,3.947999954,,FALSE,,,,,,,139,galleda,Catalan,Sounds/cat_galleda.mp3,2020-06-16_10h08.59.496,TranslationElicitation_spa,3.2.4,Win32,60,5ee3df1db2f7190ba57f464a,3.947999954,1,0,80,34,1,79
,,,,,,,,,,,,,,,,,,,,,,,,,,,,,,,,,,,,,,,,,,,,,139,galleda,Catalan,Sounds/cat_galleda.mp3,2020-06-16_10h08.59.496,TranslationElicitation_spa,3.2.4,Win32,60,5ee3df1db2f7190ba57f464a,,1,0,80,34,1,79
,,,,,,,,,,,,,,,,,,,,,,,,,,,,,,,,,,,p,3.120000124,P,FALSE,,,,,,,114,bol,Catalan,Sounds/cat_bol.mp3,2020-06-16_10h08.59.496,TranslationElicitation_spa,3.2.4,Win32,60,5ee3df1db2f7190ba57f464a,,1,0,80,9,1,79
,,,,,,,,,,,,,,,,,,,,,,,,,,,,,,,,,,,e,3.237999916,PE,FALSE,,,,,,,114,bol,Catalan,Sounds/cat_bol.mp3,2020-06-16_10h08.59.496,TranslationElicitation_spa,3.2.4,Win32,60,5ee3df1db2f7190ba57f464a,,1,0,80,9,1,79
,,,,,,,,,,,,,,,,,,,,,,,,,,,,,,,,,,,l,3.388999939,PEL,FALSE,,,,,,,114,bol,Catalan,Sounds/cat_bol.mp3,2020-06-16_10h08.59.496,TranslationElicitation_spa,3.2.4,Win32,60,5ee3df1db2f7190ba57f464a,,1,0,80,9,1,79
,,,,,,,,,,,,,,,,,,,,,,,,,,,,,,,,,,,o,3.520999908,PELO,FALSE,,,,,,,114,bol,Catalan,Sounds/cat_bol.mp3,2020-06-16_10h08.59.496,TranslationElicitation_spa,3.2.4,Win32,60,5ee3df1db2f7190ba57f464a,,1,0,80,9,1,79
,,,,,,,,,,,,,,,,,,,,,,,,,,,,,,,,,,,t,3.97300005,PELOT,FALSE,,,,,,,114,bol,Catalan,Sounds/cat_bol.mp3,2020-06-16_10h08.59.496,TranslationElicitation_spa,3.2.4,Win32,60,5ee3df1db2f7190ba57f464a,,1,0,80,9,1,79
,,,,,,,,,,,,,,,,,,,,,,,,,,,,,,,,,,,a,4.13499999,PELOTA,FALSE,,,,,,,114,bol,Catalan,Sounds/cat_bol.mp3,2020-06-16_10h08.59.496,TranslationElicitation_spa,3.2.4,Win32,60,5ee3df1db2f7190ba57f464a,,1,0,80,9,1,79
,,,,,,,,,,,,,,,,,,,,,,,,,,,,,,,,,,,return,4.32400012,,FALSE,,,,,,,114,bol,Catalan,Sounds/cat_bol.mp3,2020-06-16_10h08.59.496,TranslationElicitation_spa,3.2.4,Win32,60,5ee3df1db2f7190ba57f464a,4.32400012,1,0,80,9,1,79
,,,,,,,,,,,,,,,,,,,,,,,,,,,,,,,,,,,,,,,,,,,,,114,bol,Catalan,Sounds/cat_bol.mp3,2020-06-16_10h08.59.496,TranslationElicitation_spa,3.2.4,Win32,60,5ee3df1db2f7190ba57f464a,,1,0,80,9,1,79
,,,,,,,,,,,,,,,,,,,,,,,,,,,,,,,,,,,p,1.781000137,P,FALSE,,,,,,,162,pa,Catalan,Sounds/cat_pa.mp3,2020-06-16_10h08.59.496,TranslationElicitation_spa,3.2.4,Win32,60,5ee3df1db2f7190ba57f464a,,1,0,80,55,1,79
,,,,,,,,,,,,,,,,,,,,,,,,,,,,,,,,,,,a,1.819999933,PA,FALSE,,,,,,,162,pa,Catalan,Sounds/cat_pa.mp3,2020-06-16_10h08.59.496,TranslationElicitation_spa,3.2.4,Win32,60,5ee3df1db2f7190ba57f464a,,1,0,80,55,1,79
,,,,,,,,,,,,,,,,,,,,,,,,,,,,,,,,,,,n,1.952000141,PAN,FALSE,,,,,,,162,pa,Catalan,Sounds/cat_pa.mp3,2020-06-16_10h08.59.496,TranslationElicitation_spa,3.2.4,Win32,60,5ee3df1db2f7190ba57f464a,,1,0,80,55,1,79
,,,,,,,,,,,,,,,,,,,,,,,,,,,,,,,,,,,return,2.285000086,,FALSE,,,,,,,162,pa,Catalan,Sounds/cat_pa.mp3,2020-06-16_10h08.59.496,TranslationElicitation_spa,3.2.4,Win32,60,5ee3df1db2f7190ba57f464a,2.285000086,1,0,80,55,1,79
,,,,,,,,,,,,,,,,,,,,,,,,,,,,,,,,,,,,,,,,,,,,,162,pa,Catalan,Sounds/cat_pa.mp3,2020-06-16_10h08.59.496,TranslationElicitation_spa,3.2.4,Win32,60,5ee3df1db2f7190ba57f464a,,1,0,80,55,1,79
,,,,,,,,,,,,,,,,,,,,,,,,,,,,,,,,,,,c,3.253000021,C,FALSE,,,,,,,128,cuc,Catalan,Sounds/cat_cuc.mp3,2020-06-16_10h08.59.496,TranslationElicitation_spa,3.2.4,Win32,60,5ee3df1db2f7190ba57f464a,,1,0,80,23,1,79
,,,,,,,,,,,,,,,,,,,,,,,,,,,,,,,,,,,u,3.504000187,CU,FALSE,,,,,,,128,cuc,Catalan,Sounds/cat_cuc.mp3,2020-06-16_10h08.59.496,TranslationElicitation_spa,3.2.4,Win32,60,5ee3df1db2f7190ba57f464a,,1,0,80,23,1,79
,,,,,,,,,,,,,,,,,,,,,,,,,,,,,,,,,,,backspace,4.30700016,,TRUE,,,,,,,128,cuc,Catalan,Sounds/cat_cuc.mp3,2020-06-16_10h08.59.496,TranslationElicitation_spa,3.2.4,Win32,60,5ee3df1db2f7190ba57f464a,,1,0,80,23,1,79
,,,,,,,,,,,,,,,,,,,,,,,,,,,,,,,,,,,backspace,4.74000001,,TRUE,,,,,,,128,cuc,Catalan,Sounds/cat_cuc.mp3,2020-06-16_10h08.59.496,TranslationElicitation_spa,3.2.4,Win32,60,5ee3df1db2f7190ba57f464a,,1,0,80,23,1,79
,,,,,,,,,,,,,,,,,,,,,,,,,,,,,,,,,,,c,5.957000017,C,TRUE,,,,,,,128,cuc,Catalan,Sounds/cat_cuc.mp3,2020-06-16_10h08.59.496,TranslationElicitation_spa,3.2.4,Win32,60,5ee3df1db2f7190ba57f464a,,1,0,80,23,1,79
,,,,,,,,,,,,,,,,,,,,,,,,,,,,,,,,,,,o,6.376000166,CO,TRUE,,,,,,,128,cuc,Catalan,Sounds/cat_cuc.mp3,2020-06-16_10h08.59.496,TranslationElicitation_spa,3.2.4,Win32,60,5ee3df1db2f7190ba57f464a,,1,0,80,23,1,79
,,,,,,,,,,,,,,,,,,,,,,,,,,,,,,,,,,,c,7.194000006,COC,TRUE,,,,,,,128,cuc,Catalan,Sounds/cat_cuc.mp3,2020-06-16_10h08.59.496,TranslationElicitation_spa,3.2.4,Win32,60,5ee3df1db2f7190ba57f464a,,1,0,80,23,1,79
,,,,,,,,,,,,,,,,,,,,,,,,,,,,,,,,,,,h,7.311000109,COCH,TRUE,,,,,,,128,cuc,Catalan,Sounds/cat_cuc.mp3,2020-06-16_10h08.59.496,TranslationElicitation_spa,3.2.4,Win32,60,5ee3df1db2f7190ba57f464a,,1,0,80,23,1,79
,,,,,,,,,,,,,,,,,,,,,,,,,,,,,,,,,,,e,7.459000111,COCHE,TRUE,,,,,,,128,cuc,Catalan,Sounds/cat_cuc.mp3,2020-06-16_10h08.59.496,TranslationElicitation_spa,3.2.4,Win32,60,5ee3df1db2f7190ba57f464a,,1,0,80,23,1,79
,,,,,,,,,,,,,,,,,,,,,,,,,,,,,,,,,,,return,7.644000053,,TRUE,,,,,,,128,cuc,Catalan,Sounds/cat_cuc.mp3,2020-06-16_10h08.59.496,TranslationElicitation_spa,3.2.4,Win32,60,5ee3df1db2f7190ba57f464a,7.644000053,1,0,80,23,1,79
,,,,,,,,,,,,,,,,,,,,,,,,,,,,,,,,,,,,,,,,,,,,,128,cuc,Catalan,Sounds/cat_cuc.mp3,2020-06-16_10h08.59.496,TranslationElicitation_spa,3.2.4,Win32,60,5ee3df1db2f7190ba57f464a,,1,0,80,23,1,79
,,,,,,,,,,,,,,,,,,,,,,,,,,,,,,,,,,,p,2.95299983,P,FALSE,,,,,,,165,pernil,Catalan,Sounds/cat_pernil.mp3,2020-06-16_10h08.59.496,TranslationElicitation_spa,3.2.4,Win32,60,5ee3df1db2f7190ba57f464a,,1,0,80,58,1,79
,,,,,,,,,,,,,,,,,,,,,,,,,,,,,,,,,,,a,3.119999886,PA,FALSE,,,,,,,165,pernil,Catalan,Sounds/cat_pernil.mp3,2020-06-16_10h08.59.496,TranslationElicitation_spa,3.2.4,Win32,60,5ee3df1db2f7190ba57f464a,,1,0,80,58,1,79
,,,,,,,,,,,,,,,,,,,,,,,,,,,,,,,,,,,r,3.553999901,PAR,FALSE,,,,,,,165,pernil,Catalan,Sounds/cat_pernil.mp3,2020-06-16_10h08.59.496,TranslationElicitation_spa,3.2.4,Win32,60,5ee3df1db2f7190ba57f464a,,1,0,80,58,1,79
,,,,,,,,,,,,,,,,,,,,,,,,,,,,,,,,,,,q,6.027999878,PARQ,FALSE,,,,,,,165,pernil,Catalan,Sounds/cat_pernil.mp3,2020-06-16_10h08.59.496,TranslationElicitation_spa,3.2.4,Win32,60,5ee3df1db2f7190ba57f464a,,1,0,80,58,1,79
,,,,,,,,,,,,,,,,,,,,,,,,,,,,,,,,,,,u,6.207999945,PARQU,FALSE,,,,,,,165,pernil,Catalan,Sounds/cat_pernil.mp3,2020-06-16_10h08.59.496,TranslationElicitation_spa,3.2.4,Win32,60,5ee3df1db2f7190ba57f464a,,1,0,80,58,1,79
,,,,,,,,,,,,,,,,,,,,,,,,,,,,,,,,,,,e,6.441999912,PARQUE,FALSE,,,,,,,165,pernil,Catalan,Sounds/cat_pernil.mp3,2020-06-16_10h08.59.496,TranslationElicitation_spa,3.2.4,Win32,60,5ee3df1db2f7190ba57f464a,,1,0,80,58,1,79
,,,,,,,,,,,,,,,,,,,,,,,,,,,,,,,,,,,return,6.64199996,,FALSE,,,,,,,165,pernil,Catalan,Sounds/cat_pernil.mp3,2020-06-16_10h08.59.496,TranslationElicitation_spa,3.2.4,Win32,60,5ee3df1db2f7190ba57f464a,6.64199996,1,0,80,58,1,79
,,,,,,,,,,,,,,,,,,,,,,,,,,,,,,,,,,,,,,,,,,,,,165,pernil,Catalan,Sounds/cat_pernil.mp3,2020-06-16_10h08.59.496,TranslationElicitation_spa,3.2.4,Win32,60,5ee3df1db2f7190ba57f464a,,1,0,80,58,1,79
,,,,,,,,,,,,,,,,,,,,,,,,,,,,,,,,,,,c,1.592999935,C,FALSE,,,,,,,126,corona,Catalan,Sounds/cat_corona.mp3,2020-06-16_10h08.59.496,TranslationElicitation_spa,3.2.4,Win32,60,5ee3df1db2f7190ba57f464a,,1,0,80,21,1,79
,,,,,,,,,,,,,,,,,,,,,,,,,,,,,,,,,,,o,1.7099998,CO,FALSE,,,,,,,126,corona,Catalan,Sounds/cat_corona.mp3,2020-06-16_10h08.59.496,TranslationElicitation_spa,3.2.4,Win32,60,5ee3df1db2f7190ba57f464a,,1,0,80,21,1,79
,,,,,,,,,,,,,,,,,,,,,,,,,,,,,,,,,,,r,1.92599988,COR,FALSE,,,,,,,126,corona,Catalan,Sounds/cat_corona.mp3,2020-06-16_10h08.59.496,TranslationElicitation_spa,3.2.4,Win32,60,5ee3df1db2f7190ba57f464a,,1,0,80,21,1,79
,,,,,,,,,,,,,,,,,,,,,,,,,,,,,,,,,,,o,2.02699995,CORO,FALSE,,,,,,,126,corona,Catalan,Sounds/cat_corona.mp3,2020-06-16_10h08.59.496,TranslationElicitation_spa,3.2.4,Win32,60,5ee3df1db2f7190ba57f464a,,1,0,80,21,1,79
,,,,,,,,,,,,,,,,,,,,,,,,,,,,,,,,,,,n,2.25999999,CORON,FALSE,,,,,,,126,corona,Catalan,Sounds/cat_corona.mp3,2020-06-16_10h08.59.496,TranslationElicitation_spa,3.2.4,Win32,60,5ee3df1db2f7190ba57f464a,,1,0,80,21,1,79
,,,,,,,,,,,,,,,,,,,,,,,,,,,,,,,,,,,a,2.377999783,CORONA,FALSE,,,,,,,126,corona,Catalan,Sounds/cat_corona.mp3,2020-06-16_10h08.59.496,TranslationElicitation_spa,3.2.4,Win32,60,5ee3df1db2f7190ba57f464a,,1,0,80,21,1,79
,,,,,,,,,,,,,,,,,,,,,,,,,,,,,,,,,,,return,2.629999876,,FALSE,,,,,,,126,corona,Catalan,Sounds/cat_corona.mp3,2020-06-16_10h08.59.496,TranslationElicitation_spa,3.2.4,Win32,60,5ee3df1db2f7190ba57f464a,2.629999876,1,0,80,21,1,79
,,,,,,,,,,,,,,,,,,,,,,,,,,,,,,,,,,,,,,,,,,,,,126,corona,Catalan,Sounds/cat_corona.mp3,2020-06-16_10h08.59.496,TranslationElicitation_spa,3.2.4,Win32,60,5ee3df1db2f7190ba57f464a,,1,0,80,21,1,79
,,,,,,,,,,,,,,,,,,,,,,,,,,,,,,,,,,,p,1.767999887,P,FALSE,,,,,,,174,porta,Catalan,Sounds/cat_porta.mp3,2020-06-16_10h08.59.496,TranslationElicitation_spa,3.2.4,Win32,60,5ee3df1db2f7190ba57f464a,,1,0,80,66,1,79
,,,,,,,,,,,,,,,,,,,,,,,,,,,,,,,,,,,u,1.967999935,PU,FALSE,,,,,,,174,porta,Catalan,Sounds/cat_porta.mp3,2020-06-16_10h08.59.496,TranslationElicitation_spa,3.2.4,Win32,60,5ee3df1db2f7190ba57f464a,,1,0,80,66,1,79
,,,,,,,,,,,,,,,,,,,,,,,,,,,,,,,,,,,e,2.051999807,PUE,FALSE,,,,,,,174,porta,Catalan,Sounds/cat_porta.mp3,2020-06-16_10h08.59.496,TranslationElicitation_spa,3.2.4,Win32,60,5ee3df1db2f7190ba57f464a,,1,0,80,66,1,79
,,,,,,,,,,,,,,,,,,,,,,,,,,,,,,,,,,,r,2.184000015,PUER,FALSE,,,,,,,174,porta,Catalan,Sounds/cat_porta.mp3,2020-06-16_10h08.59.496,TranslationElicitation_spa,3.2.4,Win32,60,5ee3df1db2f7190ba57f464a,,1,0,80,66,1,79
,,,,,,,,,,,,,,,,,,,,,,,,,,,,,,,,,,,t,2.40199995,PUERT,FALSE,,,,,,,174,porta,Catalan,Sounds/cat_porta.mp3,2020-06-16_10h08.59.496,TranslationElicitation_spa,3.2.4,Win32,60,5ee3df1db2f7190ba57f464a,,1,0,80,66,1,79
,,,,,,,,,,,,,,,,,,,,,,,,,,,,,,,,,,,a,2.55099988,PUERTA,FALSE,,,,,,,174,porta,Catalan,Sounds/cat_porta.mp3,2020-06-16_10h08.59.496,TranslationElicitation_spa,3.2.4,Win32,60,5ee3df1db2f7190ba57f464a,,1,0,80,66,1,79
,,,,,,,,,,,,,,,,,,,,,,,,,,,,,,,,,,,return,2.711999893,,FALSE,,,,,,,174,porta,Catalan,Sounds/cat_porta.mp3,2020-06-16_10h08.59.496,TranslationElicitation_spa,3.2.4,Win32,60,5ee3df1db2f7190ba57f464a,2.711999893,1,0,80,66,1,79
,,,,,,,,,,,,,,,,,,,,,,,,,,,,,,,,,,,,,,,,,,,,,174,porta,Catalan,Sounds/cat_porta.mp3,2020-06-16_10h08.59.496,TranslationElicitation_spa,3.2.4,Win32,60,5ee3df1db2f7190ba57f464a,,1,0,80,66,1,79
,,,,,,,,,,,,,,,,,,,,,,,,,,,,,,,,,,,b,1.717999935,B,FALSE,,,,,,,113,boca,Catalan,Sounds/cat_boca.mp3,2020-06-16_10h08.59.496,TranslationElicitation_spa,3.2.4,Win32,60,5ee3df1db2f7190ba57f464a,,1,0,80,8,1,79
,,,,,,,,,,,,,,,,,,,,,,,,,,,,,,,,,,,o,1.920000076,BO,FALSE,,,,,,,113,boca,Catalan,Sounds/cat_boca.mp3,2020-06-16_10h08.59.496,TranslationElicitation_spa,3.2.4,Win32,60,5ee3df1db2f7190ba57f464a,,1,0,80,8,1,79
,,,,,,,,,,,,,,,,,,,,,,,,,,,,,,,,,,,c,2.052999973,BOC,FALSE,,,,,,,113,boca,Catalan,Sounds/cat_boca.mp3,2020-06-16_10h08.59.496,TranslationElicitation_spa,3.2.4,Win32,60,5ee3df1db2f7190ba57f464a,,1,0,80,8,1,79
,,,,,,,,,,,,,,,,,,,,,,,,,,,,,,,,,,,a,2.319000006,BOCA,FALSE,,,,,,,113,boca,Catalan,Sounds/cat_boca.mp3,2020-06-16_10h08.59.496,TranslationElicitation_spa,3.2.4,Win32,60,5ee3df1db2f7190ba57f464a,,1,0,80,8,1,79
,,,,,,,,,,,,,,,,,,,,,,,,,,,,,,,,,,,return,2.503000021,,FALSE,,,,,,,113,boca,Catalan,Sounds/cat_boca.mp3,2020-06-16_10h08.59.496,TranslationElicitation_spa,3.2.4,Win32,60,5ee3df1db2f7190ba57f464a,2.501999855,1,0,80,8,1,79
,,,,,,,,,,,,,,,,,,,,,,,,,,,,,,,,,,,,,,,,,,,,,113,boca,Catalan,Sounds/cat_boca.mp3,2020-06-16_10h08.59.496,TranslationElicitation_spa,3.2.4,Win32,60,5ee3df1db2f7190ba57f464a,,1,0,80,8,1,79
,,,,,,,,,,,,,,,,,,,,,,,,,,,,,,,,,,,e,1.634000063,E,FALSE,,,,,,,131,esponja,Catalan,Sounds/cat_esponja.mp3,2020-06-16_10h08.59.496,TranslationElicitation_spa,3.2.4,Win32,60,5ee3df1db2f7190ba57f464a,,1,0,80,26,1,79
,,,,,,,,,,,,,,,,,,,,,,,,,,,,,,,,,,,s,1.834000111,ES,FALSE,,,,,,,131,esponja,Catalan,Sounds/cat_esponja.mp3,2020-06-16_10h08.59.496,TranslationElicitation_spa,3.2.4,Win32,60,5ee3df1db2f7190ba57f464a,,1,0,80,26,1,79
,,,,,,,,,,,,,,,,,,,,,,,,,,,,,,,,,,,p,2.551000118,ESP,FALSE,,,,,,,131,esponja,Catalan,Sounds/cat_esponja.mp3,2020-06-16_10h08.59.496,TranslationElicitation_spa,3.2.4,Win32,60,5ee3df1db2f7190ba57f464a,,1,0,80,26,1,79
,,,,,,,,,,,,,,,,,,,,,,,,,,,,,,,,,,,a,3.107000113,ESPA,FALSE,,,,,,,131,esponja,Catalan,Sounds/cat_esponja.mp3,2020-06-16_10h08.59.496,TranslationElicitation_spa,3.2.4,Win32,60,5ee3df1db2f7190ba57f464a,,1,0,80,26,1,79
,,,,,,,,,,,,,,,,,,,,,,,,,,,,,,,,,,,semicolon,3.289000034,ESPA,FALSE,,,,,,,131,esponja,Catalan,Sounds/cat_esponja.mp3,2020-06-16_10h08.59.496,TranslationElicitation_spa,3.2.4,Win32,60,5ee3df1db2f7190ba57f464a,,1,0,80,26,1,79
,,,,,,,,,,,,,,,,,,,,,,,,,,,,,,,,,,,a,3.321000099,ESPAA,FALSE,,,,,,,131,esponja,Catalan,Sounds/cat_esponja.mp3,2020-06-16_10h08.59.496,TranslationElicitation_spa,3.2.4,Win32,60,5ee3df1db2f7190ba57f464a,,1,0,80,26,1,79
,,,,,,,,,,,,,,,,,,,,,,,,,,,,,,,,,,,return,3.570000172,,FALSE,,,,,,,131,esponja,Catalan,Sounds/cat_esponja.mp3,2020-06-16_10h08.59.496,TranslationElicitation_spa,3.2.4,Win32,60,5ee3df1db2f7190ba57f464a,3.570000172,1,0,80,26,1,79
,,,,,,,,,,,,,,,,,,,,,,,,,,,,,,,,,,,,,,,,,,,,,131,esponja,Catalan,Sounds/cat_esponja.mp3,2020-06-16_10h08.59.496,TranslationElicitation_spa,3.2.4,Win32,60,5ee3df1db2f7190ba57f464a,,1,0,80,26,1,79
,,,,,,,,,,,,,,,,,,,,,,,,,,,,,,,,,,,g,1.751000166,G,FALSE,,,,,,,140,gat,Catalan,Sounds/cat_gat.mp3,2020-06-16_10h08.59.496,TranslationElicitation_spa,3.2.4,Win32,60,5ee3df1db2f7190ba57f464a,,1,0,80,35,1,79
,,,,,,,,,,,,,,,,,,,,,,,,,,,,,,,,,,,a,1.884000063,GA,FALSE,,,,,,,140,gat,Catalan,Sounds/cat_gat.mp3,2020-06-16_10h08.59.496,TranslationElicitation_spa,3.2.4,Win32,60,5ee3df1db2f7190ba57f464a,,1,0,80,35,1,79
,,,,,,,,,,,,,,,,,,,,,,,,,,,,,,,,,,,t,2.851999998,GAT,FALSE,,,,,,,140,gat,Catalan,Sounds/cat_gat.mp3,2020-06-16_10h08.59.496,TranslationElicitation_spa,3.2.4,Win32,60,5ee3df1db2f7190ba57f464a,,1,0,80,35,1,79
,,,,,,,,,,,,,,,,,,,,,,,,,,,,,,,,,,,o,2.921000004,GATO,FALSE,,,,,,,140,gat,Catalan,Sounds/cat_gat.mp3,2020-06-16_10h08.59.496,TranslationElicitation_spa,3.2.4,Win32,60,5ee3df1db2f7190ba57f464a,,1,0,80,35,1,79
,,,,,,,,,,,,,,,,,,,,,,,,,,,,,,,,,,,return,3.186000109,,FALSE,,,,,,,140,gat,Catalan,Sounds/cat_gat.mp3,2020-06-16_10h08.59.496,TranslationElicitation_spa,3.2.4,Win32,60,5ee3df1db2f7190ba57f464a,3.185000181,1,0,80,35,1,79
,,,,,,,,,,,,,,,,,,,,,,,,,,,,,,,,,,,,,,,,,,,,,140,gat,Catalan,Sounds/cat_gat.mp3,2020-06-16_10h08.59.496,TranslationElicitation_spa,3.2.4,Win32,60,5ee3df1db2f7190ba57f464a,,1,0,80,35,1,79
,,,,,,,,,,,,,,,,,,,,,,,,,,,,,,,,,,,h,2.486000061,H,FALSE,,,,,,,137,fulla,Catalan,Sounds/cat_fulla.mp3,2020-06-16_10h08.59.496,TranslationElicitation_spa,3.2.4,Win32,60,5ee3df1db2f7190ba57f464a,,1,0,80,32,1,79
,,,,,,,,,,,,,,,,,,,,,,,,,,,,,,,,,,,o,2.667999983,HO,FALSE,,,,,,,137,fulla,Catalan,Sounds/cat_fulla.mp3,2020-06-16_10h08.59.496,TranslationElicitation_spa,3.2.4,Win32,60,5ee3df1db2f7190ba57f464a,,1,0,80,32,1,79
,,,,,,,,,,,,,,,,,,,,,,,,,,,,,,,,,,,j,2.835999966,HOJ,FALSE,,,,,,,137,fulla,Catalan,Sounds/cat_fulla.mp3,2020-06-16_10h08.59.496,TranslationElicitation_spa,3.2.4,Win32,60,5ee3df1db2f7190ba57f464a,,1,0,80,32,1,79
,,,,,,,,,,,,,,,,,,,,,,,,,,,,,,,,,,,a,2.952000141,HOJA,FALSE,,,,,,,137,fulla,Catalan,Sounds/cat_fulla.mp3,2020-06-16_10h08.59.496,TranslationElicitation_spa,3.2.4,Win32,60,5ee3df1db2f7190ba57f464a,,1,0,80,32,1,79
,,,,,,,,,,,,,,,,,,,,,,,,,,,,,,,,,,,return,3.187000036,,FALSE,,,,,,,137,fulla,Catalan,Sounds/cat_fulla.mp3,2020-06-16_10h08.59.496,TranslationElicitation_spa,3.2.4,Win32,60,5ee3df1db2f7190ba57f464a,3.187000036,1,0,80,32,1,79
,,,,,,,,,,,,,,,,,,,,,,,,,,,,,,,,,,,,,,,,,,,,,137,fulla,Catalan,Sounds/cat_fulla.mp3,2020-06-16_10h08.59.496,TranslationElicitation_spa,3.2.4,Win32,60,5ee3df1db2f7190ba57f464a,,1,0,80,32,1,79
,,,,,,,,,,,,,,,,,,,,,,,,,,,,,,,,,,,t,1.720000029,T,FALSE,,,,,,,183,tren,Catalan,Sounds/cat_tren.mp3,2020-06-16_10h08.59.496,TranslationElicitation_spa,3.2.4,Win32,60,5ee3df1db2f7190ba57f464a,,1,0,80,74,1,79
,,,,,,,,,,,,,,,,,,,,,,,,,,,,,,,,,,,r,2.086999893,TR,FALSE,,,,,,,183,tren,Catalan,Sounds/cat_tren.mp3,2020-06-16_10h08.59.496,TranslationElicitation_spa,3.2.4,Win32,60,5ee3df1db2f7190ba57f464a,,1,0,80,74,1,79
,,,,,,,,,,,,,,,,,,,,,,,,,,,,,,,,,,,n,2.220000029,TRN,FALSE,,,,,,,183,tren,Catalan,Sounds/cat_tren.mp3,2020-06-16_10h08.59.496,TranslationElicitation_spa,3.2.4,Win32,60,5ee3df1db2f7190ba57f464a,,1,0,80,74,1,79
,,,,,,,,,,,,,,,,,,,,,,,,,,,,,,,,,,,e,3.154999971,TRNE,FALSE,,,,,,,183,tren,Catalan,Sounds/cat_tren.mp3,2020-06-16_10h08.59.496,TranslationElicitation_spa,3.2.4,Win32,60,5ee3df1db2f7190ba57f464a,,1,0,80,74,1,79
,,,,,,,,,,,,,,,,,,,,,,,,,,,,,,,,,,,backspace,3.873999834,TR,TRUE,,,,,,,183,tren,Catalan,Sounds/cat_tren.mp3,2020-06-16_10h08.59.496,TranslationElicitation_spa,3.2.4,Win32,60,5ee3df1db2f7190ba57f464a,,1,0,80,74,1,79
,,,,,,,,,,,,,,,,,,,,,,,,,,,,,,,,,,,backspace,4.020999908,,TRUE,,,,,,,183,tren,Catalan,Sounds/cat_tren.mp3,2020-06-16_10h08.59.496,TranslationElicitation_spa,3.2.4,Win32,60,5ee3df1db2f7190ba57f464a,,1,0,80,74,1,79
,,,,,,,,,,,,,,,,,,,,,,,,,,,,,,,,,,,e,4.157999992,E,TRUE,,,,,,,183,tren,Catalan,Sounds/cat_tren.mp3,2020-06-16_10h08.59.496,TranslationElicitation_spa,3.2.4,Win32,60,5ee3df1db2f7190ba57f464a,,1,0,80,74,1,79
,,,,,,,,,,,,,,,,,,,,,,,,,,,,,,,,,,,n,4.569000006,EN,TRUE,,,,,,,183,tren,Catalan,Sounds/cat_tren.mp3,2020-06-16_10h08.59.496,TranslationElicitation_spa,3.2.4,Win32,60,5ee3df1db2f7190ba57f464a,,1,0,80,74,1,79
,,,,,,,,,,,,,,,,,,,,,,,,,,,,,,,,,,,backspace,4.837999821,,TRUE,,,,,,,183,tren,Catalan,Sounds/cat_tren.mp3,2020-06-16_10h08.59.496,TranslationElicitation_spa,3.2.4,Win32,60,5ee3df1db2f7190ba57f464a,,1,0,80,74,1,79
,,,,,,,,,,,,,,,,,,,,,,,,,,,,,,,,,,,t,5.931999922,T,TRUE,,,,,,,183,tren,Catalan,Sounds/cat_tren.mp3,2020-06-16_10h08.59.496,TranslationElicitation_spa,3.2.4,Win32,60,5ee3df1db2f7190ba57f464a,,1,0,80,74,1,79
,,,,,,,,,,,,,,,,,,,,,,,,,,,,,,,,,,,r,6.166999817,TR,TRUE,,,,,,,183,tren,Catalan,Sounds/cat_tren.mp3,2020-06-16_10h08.59.496,TranslationElicitation_spa,3.2.4,Win32,60,5ee3df1db2f7190ba57f464a,,1,0,80,74,1,79
,,,,,,,,,,,,,,,,,,,,,,,,,,,,,,,,,,,e,6.316999912,TRE,TRUE,,,,,,,183,tren,Catalan,Sounds/cat_tren.mp3,2020-06-16_10h08.59.496,TranslationElicitation_spa,3.2.4,Win32,60,5ee3df1db2f7190ba57f464a,,1,0,80,74,1,79
,,,,,,,,,,,,,,,,,,,,,,,,,,,,,,,,,,,n,6.467000008,TREN,TRUE,,,,,,,183,tren,Catalan,Sounds/cat_tren.mp3,2020-06-16_10h08.59.496,TranslationElicitation_spa,3.2.4,Win32,60,5ee3df1db2f7190ba57f464a,,1,0,80,74,1,79
,,,,,,,,,,,,,,,,,,,,,,,,,,,,,,,,,,,return,6.90899992,,TRUE,,,,,,,183,tren,Catalan,Sounds/cat_tren.mp3,2020-06-16_10h08.59.496,TranslationElicitation_spa,3.2.4,Win32,60,5ee3df1db2f7190ba57f464a,6.90899992,1,0,80,74,1,79
,,,,,,,,,,,,,,,,,,,,,,,,,,,,,,,,,,,,,,,,,,,,,183,tren,Catalan,Sounds/cat_tren.mp3,2020-06-16_10h08.59.496,TranslationElicitation_spa,3.2.4,Win32,60,5ee3df1db2f7190ba57f464a,,1,0,80,74,1,79
,,,,,,,,,,,,,,,,,,,,,,,,,,,,,,,,,,,l,2.308000088,L,FALSE,,,,,,,150,lloro,Catalan,Sounds/cat_lloro.mp3,2020-06-16_10h08.59.496,TranslationElicitation_spa,3.2.4,Win32,60,5ee3df1db2f7190ba57f464a,,1,0,80,44,1,79
,,,,,,,,,,,,,,,,,,,,,,,,,,,,,,,,,,,o,2.525000095,LO,FALSE,,,,,,,150,lloro,Catalan,Sounds/cat_lloro.mp3,2020-06-16_10h08.59.496,TranslationElicitation_spa,3.2.4,Win32,60,5ee3df1db2f7190ba57f464a,,1,0,80,44,1,79
,,,,,,,,,,,,,,,,,,,,,,,,,,,,,,,,,,,r,2.778000116,LOR,FALSE,,,,,,,150,lloro,Catalan,Sounds/cat_lloro.mp3,2020-06-16_10h08.59.496,TranslationElicitation_spa,3.2.4,Win32,60,5ee3df1db2f7190ba57f464a,,1,0,80,44,1,79
,,,,,,,,,,,,,,,,,,,,,,,,,,,,,,,,,,,o,2.859000206,LORO,FALSE,,,,,,,150,lloro,Catalan,Sounds/cat_lloro.mp3,2020-06-16_10h08.59.496,TranslationElicitation_spa,3.2.4,Win32,60,5ee3df1db2f7190ba57f464a,,1,0,80,44,1,79
,,,,,,,,,,,,,,,,,,,,,,,,,,,,,,,,,,,return,3.161000013,,FALSE,,,,,,,150,lloro,Catalan,Sounds/cat_lloro.mp3,2020-06-16_10h08.59.496,TranslationElicitation_spa,3.2.4,Win32,60,5ee3df1db2f7190ba57f464a,3.161000013,1,0,80,44,1,79
,,,,,,,,,,,,,,,,,,,,,,,,,,,,,,,,,,,,,,,,,,,,,150,lloro,Catalan,Sounds/cat_lloro.mp3,2020-06-16_10h08.59.496,TranslationElicitation_spa,3.2.4,Win32,60,5ee3df1db2f7190ba57f464a,,1,0,80,44,1,79
,,,,,,,,,,,,,,,,,,,,,,,,,,,,,,,,,,,g,6.006999969,G,FALSE,,,,,,,153,mico,Catalan,Sounds/cat_mico.mp3,2020-06-16_10h08.59.496,TranslationElicitation_spa,3.2.4,Win32,60,5ee3df1db2f7190ba57f464a,,1,0,80,47,1,79
,,,,,,,,,,,,,,,,,,,,,,,,,,,,,,,,,,,a,6.157999992,GA,FALSE,,,,,,,153,mico,Catalan,Sounds/cat_mico.mp3,2020-06-16_10h08.59.496,TranslationElicitation_spa,3.2.4,Win32,60,5ee3df1db2f7190ba57f464a,,1,0,80,47,1,79
,,,,,,,,,,,,,,,,,,,,,,,,,,,,,,,,,,,t,6.707000017,GAT,FALSE,,,,,,,153,mico,Catalan,Sounds/cat_mico.mp3,2020-06-16_10h08.59.496,TranslationElicitation_spa,3.2.4,Win32,60,5ee3df1db2f7190ba57f464a,,1,0,80,47,1,79
,,,,,,,,,,,,,,,,,,,,,,,,,,,,,,,,,,,o,8.044000149,GATO,FALSE,,,,,,,153,mico,Catalan,Sounds/cat_mico.mp3,2020-06-16_10h08.59.496,TranslationElicitation_spa,3.2.4,Win32,60,5ee3df1db2f7190ba57f464a,,1,0,80,47,1,79
,,,,,,,,,,,,,,,,,,,,,,,,,,,,,,,,,,,return,8.328999996,,FALSE,,,,,,,153,mico,Catalan,Sounds/cat_mico.mp3,2020-06-16_10h08.59.496,TranslationElicitation_spa,3.2.4,Win32,60,5ee3df1db2f7190ba57f464a,8.328999996,1,0,80,47,1,79
,,,,,,,,,,,,,,,,,,,,,,,,,,,,,,,,,,,,,,,,,,,,,153,mico,Catalan,Sounds/cat_mico.mp3,2020-06-16_10h08.59.496,TranslationElicitation_spa,3.2.4,Win32,60,5ee3df1db2f7190ba57f464a,,1,0,80,47,1,79
,,,,,,,,,,,,,,,,,,,,,,,,,,,,,,,,,,,m,2.150000095,M,FALSE,,,,,,,120,cama,Catalan,Sounds/cat_cama.mp3,2020-06-16_10h08.59.496,TranslationElicitation_spa,3.2.4,Win32,60,5ee3df1db2f7190ba57f464a,,1,0,80,15,1,79
,,,,,,,,,,,,,,,,,,,,,,,,,,,,,,,,,,,a,2.217000008,MA,FALSE,,,,,,,120,cama,Catalan,Sounds/cat_cama.mp3,2020-06-16_10h08.59.496,TranslationElicitation_spa,3.2.4,Win32,60,5ee3df1db2f7190ba57f464a,,1,0,80,15,1,79
,,,,,,,,,,,,,,,,,,,,,,,,,,,,,,,,,,,m,2.317000151,MAM,FALSE,,,,,,,120,cama,Catalan,Sounds/cat_cama.mp3,2020-06-16_10h08.59.496,TranslationElicitation_spa,3.2.4,Win32,60,5ee3df1db2f7190ba57f464a,,1,0,80,15,1,79
,,,,,,,,,,,,,,,,,,,,,,,,,,,,,,,,,,,a,2.386000156,MAMA,FALSE,,,,,,,120,cama,Catalan,Sounds/cat_cama.mp3,2020-06-16_10h08.59.496,TranslationElicitation_spa,3.2.4,Win32,60,5ee3df1db2f7190ba57f464a,,1,0,80,15,1,79
,,,,,,,,,,,,,,,,,,,,,,,,,,,,,,,,,,,return,2.920000076,,FALSE,,,,,,,120,cama,Catalan,Sounds/cat_cama.mp3,2020-06-16_10h08.59.496,TranslationElicitation_spa,3.2.4,Win32,60,5ee3df1db2f7190ba57f464a,2.920000076,1,0,80,15,1,79
,,,,,,,,,,,,,,,,,,,,,,,,,,,,,,,,,,,,,,,,,,,,,120,cama,Catalan,Sounds/cat_cama.mp3,2020-06-16_10h08.59.496,TranslationElicitation_spa,3.2.4,Win32,60,5ee3df1db2f7190ba57f464a,,1,0,80,15,1,79
,,,,,,,,,,,,,,,,,,,,,,,,,,,,,,,,,,,l,1.78399992,L,FALSE,,,,,,,151,lluna,Catalan,Sounds/cat_lluna.mp3,2020-06-16_10h08.59.496,TranslationElicitation_spa,3.2.4,Win32,60,5ee3df1db2f7190ba57f464a,,1,0,80,45,1,79
,,,,,,,,,,,,,,,,,,,,,,,,,,,,,,,,,,,u,2.082999945,LU,FALSE,,,,,,,151,lluna,Catalan,Sounds/cat_lluna.mp3,2020-06-16_10h08.59.496,TranslationElicitation_spa,3.2.4,Win32,60,5ee3df1db2f7190ba57f464a,,1,0,80,45,1,79
,,,,,,,,,,,,,,,,,,,,,,,,,,,,,,,,,,,n,2.302000046,LUN,FALSE,,,,,,,151,lluna,Catalan,Sounds/cat_lluna.mp3,2020-06-16_10h08.59.496,TranslationElicitation_spa,3.2.4,Win32,60,5ee3df1db2f7190ba57f464a,,1,0,80,45,1,79
,,,,,,,,,,,,,,,,,,,,,,,,,,,,,,,,,,,a,2.434000015,LUNA,FALSE,,,,,,,151,lluna,Catalan,Sounds/cat_lluna.mp3,2020-06-16_10h08.59.496,TranslationElicitation_spa,3.2.4,Win32,60,5ee3df1db2f7190ba57f464a,,1,0,80,45,1,79
,,,,,,,,,,,,,,,,,,,,,,,,,,,,,,,,,,,return,2.602999926,,FALSE,,,,,,,151,lluna,Catalan,Sounds/cat_lluna.mp3,2020-06-16_10h08.59.496,TranslationElicitation_spa,3.2.4,Win32,60,5ee3df1db2f7190ba57f464a,2.602999926,1,0,80,45,1,79
,,,,,,,,,,,,,,,,,,,,,,,,,,,,,,,,,,,,,,,,,,,,,151,lluna,Catalan,Sounds/cat_lluna.mp3,2020-06-16_10h08.59.496,TranslationElicitation_spa,3.2.4,Win32,60,5ee3df1db2f7190ba57f464a,,1,0,80,45,1,79
,,,,,,,,,,,,,,,,,,,,,,,,,,,,,,,,,,,c,1.649999857,C,FALSE,,,,,,,127,cotxe,Catalan,Sounds/cat_cotxe.mp3,2020-06-16_10h08.59.496,TranslationElicitation_spa,3.2.4,Win32,60,5ee3df1db2f7190ba57f464a,,1,0,80,22,1,79
,,,,,,,,,,,,,,,,,,,,,,,,,,,,,,,,,,,o,2.085999966,CO,FALSE,,,,,,,127,cotxe,Catalan,Sounds/cat_cotxe.mp3,2020-06-16_10h08.59.496,TranslationElicitation_spa,3.2.4,Win32,60,5ee3df1db2f7190ba57f464a,,1,0,80,22,1,79
,,,,,,,,,,,,,,,,,,,,,,,,,,,,,,,,,,,h,2.40199995,COH,FALSE,,,,,,,127,cotxe,Catalan,Sounds/cat_cotxe.mp3,2020-06-16_10h08.59.496,TranslationElicitation_spa,3.2.4,Win32,60,5ee3df1db2f7190ba57f464a,,1,0,80,22,1,79
,,,,,,,,,,,,,,,,,,,,,,,,,,,,,,,,,,,c,2.552999973,COHC,FALSE,,,,,,,127,cotxe,Catalan,Sounds/cat_cotxe.mp3,2020-06-16_10h08.59.496,TranslationElicitation_spa,3.2.4,Win32,60,5ee3df1db2f7190ba57f464a,,1,0,80,22,1,79
,,,,,,,,,,,,,,,,,,,,,,,,,,,,,,,,,,,backspace,3.174000025,CO,TRUE,,,,,,,127,cotxe,Catalan,Sounds/cat_cotxe.mp3,2020-06-16_10h08.59.496,TranslationElicitation_spa,3.2.4,Win32,60,5ee3df1db2f7190ba57f464a,,1,0,80,22,1,79
,,,,,,,,,,,,,,,,,,,,,,,,,,,,,,,,,,,c,3.789000034,COC,TRUE,,,,,,,127,cotxe,Catalan,Sounds/cat_cotxe.mp3,2020-06-16_10h08.59.496,TranslationElicitation_spa,3.2.4,Win32,60,5ee3df1db2f7190ba57f464a,,1,0,80,22,1,79
,,,,,,,,,,,,,,,,,,,,,,,,,,,,,,,,,,,h,3.954999924,COCH,TRUE,,,,,,,127,cotxe,Catalan,Sounds/cat_cotxe.mp3,2020-06-16_10h08.59.496,TranslationElicitation_spa,3.2.4,Win32,60,5ee3df1db2f7190ba57f464a,,1,0,80,22,1,79
,,,,,,,,,,,,,,,,,,,,,,,,,,,,,,,,,,,e,4.105000019,COCHE,TRUE,,,,,,,127,cotxe,Catalan,Sounds/cat_cotxe.mp3,2020-06-16_10h08.59.496,TranslationElicitation_spa,3.2.4,Win32,60,5ee3df1db2f7190ba57f464a,,1,0,80,22,1,79
,,,,,,,,,,,,,,,,,,,,,,,,,,,,,,,,,,,return,4.289000034,,TRUE,,,,,,,127,cotxe,Catalan,Sounds/cat_cotxe.mp3,2020-06-16_10h08.59.496,TranslationElicitation_spa,3.2.4,Win32,60,5ee3df1db2f7190ba57f464a,4.289000034,1,0,80,22,1,79
,,,,,,,,,,,,,,,,,,,,,,,,,,,,,,,,,,,,,,,,,,,,,127,cotxe,Catalan,Sounds/cat_cotxe.mp3,2020-06-16_10h08.59.496,TranslationElicitation_spa,3.2.4,Win32,60,5ee3df1db2f7190ba57f464a,,1,0,80,22,1,79
,,,,,,,,,,,,,,,,,,,,,,,,,,,,,,,,,,,a,2.521000147,A,FALSE,,,,,,,185,ulleres,Catalan,Sounds/cat_ulleres.mp3,2020-06-16_10h08.59.496,TranslationElicitation_spa,3.2.4,Win32,60,5ee3df1db2f7190ba57f464a,,1,0,80,76,1,79
,,,,,,,,,,,,,,,,,,,,,,,,,,,,,,,,,,,n,2.671999931,AN,FALSE,,,,,,,185,ulleres,Catalan,Sounds/cat_ulleres.mp3,2020-06-16_10h08.59.496,TranslationElicitation_spa,3.2.4,Win32,60,5ee3df1db2f7190ba57f464a,,1,0,80,76,1,79
,,,,,,,,,,,,,,,,,,,,,,,,,,,,,,,,,,,i,2.855000019,ANI,FALSE,,,,,,,185,ulleres,Catalan,Sounds/cat_ulleres.mp3,2020-06-16_10h08.59.496,TranslationElicitation_spa,3.2.4,Win32,60,5ee3df1db2f7190ba57f464a,,1,0,80,76,1,79
,,,,,,,,,,,,,,,,,,,,,,,,,,,,,,,,,,,l,3.105000019,ANIL,FALSE,,,,,,,185,ulleres,Catalan,Sounds/cat_ulleres.mp3,2020-06-16_10h08.59.496,TranslationElicitation_spa,3.2.4,Win32,60,5ee3df1db2f7190ba57f464a,,1,0,80,76,1,79
,,,,,,,,,,,,,,,,,,,,,,,,,,,,,,,,,,,l,3.269999981,ANILL,FALSE,,,,,,,185,ulleres,Catalan,Sounds/cat_ulleres.mp3,2020-06-16_10h08.59.496,TranslationElicitation_spa,3.2.4,Win32,60,5ee3df1db2f7190ba57f464a,,1,0,80,76,1,79
,,,,,,,,,,,,,,,,,,,,,,,,,,,,,,,,,,,backspace,3.720999956,ANI,TRUE,,,,,,,185,ulleres,Catalan,Sounds/cat_ulleres.mp3,2020-06-16_10h08.59.496,TranslationElicitation_spa,3.2.4,Win32,60,5ee3df1db2f7190ba57f464a,,1,0,80,76,1,79
,,,,,,,,,,,,,,,,,,,,,,,,,,,,,,,,,,,backspace,4.256000042,A,TRUE,,,,,,,185,ulleres,Catalan,Sounds/cat_ulleres.mp3,2020-06-16_10h08.59.496,TranslationElicitation_spa,3.2.4,Win32,60,5ee3df1db2f7190ba57f464a,,1,0,80,76,1,79
,,,,,,,,,,,,,,,,,,,,,,,,,,,,,,,,,,,backspace,4.292000055,,TRUE,,,,,,,185,ulleres,Catalan,Sounds/cat_ulleres.mp3,2020-06-16_10h08.59.496,TranslationElicitation_spa,3.2.4,Win32,60,5ee3df1db2f7190ba57f464a,,1,0,80,76,1,79
,,,,,,,,,,,,,,,,,,,,,,,,,,,,,,,,,,,backspace,4.32400012,,TRUE,,,,,,,185,ulleres,Catalan,Sounds/cat_ulleres.mp3,2020-06-16_10h08.59.496,TranslationElicitation_spa,3.2.4,Win32,60,5ee3df1db2f7190ba57f464a,,1,0,80,76,1,79
,,,,,,,,,,,,,,,,,,,,,,,,,,,,,,,,,,,p,5.023000002,P,TRUE,,,,,,,185,ulleres,Catalan,Sounds/cat_ulleres.mp3,2020-06-16_10h08.59.496,TranslationElicitation_spa,3.2.4,Win32,60,5ee3df1db2f7190ba57f464a,,1,0,80,76,1,79
,,,,,,,,,,,,,,,,,,,,,,,,,,,,,,,,,,,u,5.25999999,PU,TRUE,,,,,,,185,ulleres,Catalan,Sounds/cat_ulleres.mp3,2020-06-16_10h08.59.496,TranslationElicitation_spa,3.2.4,Win32,60,5ee3df1db2f7190ba57f464a,,1,0,80,76,1,79
,,,,,,,,,,,,,,,,,,,,,,,,,,,,,,,,,,,l,5.475000143,PUL,TRUE,,,,,,,185,ulleres,Catalan,Sounds/cat_ulleres.mp3,2020-06-16_10h08.59.496,TranslationElicitation_spa,3.2.4,Win32,60,5ee3df1db2f7190ba57f464a,,1,0,80,76,1,79
,,,,,,,,,,,,,,,,,,,,,,,,,,,,,,,,,,,s,5.610000134,PULS,TRUE,,,,,,,185,ulleres,Catalan,Sounds/cat_ulleres.mp3,2020-06-16_10h08.59.496,TranslationElicitation_spa,3.2.4,Win32,60,5ee3df1db2f7190ba57f464a,,1,0,80,76,1,79
,,,,,,,,,,,,,,,,,,,,,,,,,,,,,,,,,,,e,5.756999969,PULSE,TRUE,,,,,,,185,ulleres,Catalan,Sounds/cat_ulleres.mp3,2020-06-16_10h08.59.496,TranslationElicitation_spa,3.2.4,Win32,60,5ee3df1db2f7190ba57f464a,,1,0,80,76,1,79
,,,,,,,,,,,,,,,,,,,,,,,,,,,,,,,,,,,r,5.943000078,PULSER,TRUE,,,,,,,185,ulleres,Catalan,Sounds/cat_ulleres.mp3,2020-06-16_10h08.59.496,TranslationElicitation_spa,3.2.4,Win32,60,5ee3df1db2f7190ba57f464a,,1,0,80,76,1,79
,,,,,,,,,,,,,,,,,,,,,,,,,,,,,,,,,,,a,6.193000078,PULSERA,TRUE,,,,,,,185,ulleres,Catalan,Sounds/cat_ulleres.mp3,2020-06-16_10h08.59.496,TranslationElicitation_spa,3.2.4,Win32,60,5ee3df1db2f7190ba57f464a,,1,0,80,76,1,79
,,,,,,,,,,,,,,,,,,,,,,,,,,,,,,,,,,,l,6.375,PULSERAL,TRUE,,,,,,,185,ulleres,Catalan,Sounds/cat_ulleres.mp3,2020-06-16_10h08.59.496,TranslationElicitation_spa,3.2.4,Win32,60,5ee3df1db2f7190ba57f464a,,1,0,80,76,1,79
,,,,,,,,,,,,,,,,,,,,,,,,,,,,,,,,,,,backspace,6.794000149,PULSER,TRUE,,,,,,,185,ulleres,Catalan,Sounds/cat_ulleres.mp3,2020-06-16_10h08.59.496,TranslationElicitation_spa,3.2.4,Win32,60,5ee3df1db2f7190ba57f464a,,1,0,80,76,1,79
,,,,,,,,,,,,,,,,,,,,,,,,,,,,,,,,,,,s,6.993999958,PULSERS,TRUE,,,,,,,185,ulleres,Catalan,Sounds/cat_ulleres.mp3,2020-06-16_10h08.59.496,TranslationElicitation_spa,3.2.4,Win32,60,5ee3df1db2f7190ba57f464a,,1,0,80,76,1,79
,,,,,,,,,,,,,,,,,,,,,,,,,,,,,,,,,,,return,7.143000126,,TRUE,,,,,,,185,ulleres,Catalan,Sounds/cat_ulleres.mp3,2020-06-16_10h08.59.496,TranslationElicitation_spa,3.2.4,Win32,60,5ee3df1db2f7190ba57f464a,7.143000126,1,0,80,76,1,79
,,,,,,,,,,,,,,,,,,,,,,,,,,,,,,,,,,,,,,,,,,,,,185,ulleres,Catalan,Sounds/cat_ulleres.mp3,2020-06-16_10h08.59.496,TranslationElicitation_spa,3.2.4,Win32,60,5ee3df1db2f7190ba57f464a,,1,0,80,76,1,79
,,,,,,,,,,,,,,,,,,,,,,,,,,,,,,,,,,,h,1.727999926,H,FALSE,,,,,,,136,forquilla,Catalan,Sounds/cat_forquilla.mp3,2020-06-16_10h08.59.496,TranslationElicitation_spa,3.2.4,Win32,60,5ee3df1db2f7190ba57f464a,,1,0,80,31,1,79
,,,,,,,,,,,,,,,,,,,,,,,,,,,,,,,,,,,o,1.944000006,HO,FALSE,,,,,,,136,forquilla,Catalan,Sounds/cat_forquilla.mp3,2020-06-16_10h08.59.496,TranslationElicitation_spa,3.2.4,Win32,60,5ee3df1db2f7190ba57f464a,,1,0,80,31,1,79
,,,,,,,,,,,,,,,,,,,,,,,,,,,,,,,,,,,r,2.095000029,HOR,FALSE,,,,,,,136,forquilla,Catalan,Sounds/cat_forquilla.mp3,2020-06-16_10h08.59.496,TranslationElicitation_spa,3.2.4,Win32,60,5ee3df1db2f7190ba57f464a,,1,0,80,31,1,79
,,,,,,,,,,,,,,,,,,,,,,,,,,,,,,,,,,,q,2.428999901,HORQ,FALSE,,,,,,,136,forquilla,Catalan,Sounds/cat_forquilla.mp3,2020-06-16_10h08.59.496,TranslationElicitation_spa,3.2.4,Win32,60,5ee3df1db2f7190ba57f464a,,1,0,80,31,1,79
,,,,,,,,,,,,,,,,,,,,,,,,,,,,,,,,,,,u,3.213999987,HORQU,FALSE,,,,,,,136,forquilla,Catalan,Sounds/cat_forquilla.mp3,2020-06-16_10h08.59.496,TranslationElicitation_spa,3.2.4,Win32,60,5ee3df1db2f7190ba57f464a,,1,0,80,31,1,79
,,,,,,,,,,,,,,,,,,,,,,,,,,,,,,,,,,,i,3.397000074,HORQUI,FALSE,,,,,,,136,forquilla,Catalan,Sounds/cat_forquilla.mp3,2020-06-16_10h08.59.496,TranslationElicitation_spa,3.2.4,Win32,60,5ee3df1db2f7190ba57f464a,,1,0,80,31,1,79
,,,,,,,,,,,,,,,,,,,,,,,,,,,,,,,,,,,l,3.631000042,HORQUIL,FALSE,,,,,,,136,forquilla,Catalan,Sounds/cat_forquilla.mp3,2020-06-16_10h08.59.496,TranslationElicitation_spa,3.2.4,Win32,60,5ee3df1db2f7190ba57f464a,,1,0,80,31,1,79
,,,,,,,,,,,,,,,,,,,,,,,,,,,,,,,,,,,a,3.86500001,HORQUILA,FALSE,,,,,,,136,forquilla,Catalan,Sounds/cat_forquilla.mp3,2020-06-16_10h08.59.496,TranslationElicitation_spa,3.2.4,Win32,60,5ee3df1db2f7190ba57f464a,,1,0,80,31,1,79
,,,,,,,,,,,,,,,,,,,,,,,,,,,,,,,,,,,backspace,4.398999929,HORQUI,TRUE,,,,,,,136,forquilla,Catalan,Sounds/cat_forquilla.mp3,2020-06-16_10h08.59.496,TranslationElicitation_spa,3.2.4,Win32,60,5ee3df1db2f7190ba57f464a,,1,0,80,31,1,79
,,,,,,,,,,,,,,,,,,,,,,,,,,,,,,,,,,,l,5.03399992,HORQUIL,TRUE,,,,,,,136,forquilla,Catalan,Sounds/cat_forquilla.mp3,2020-06-16_10h08.59.496,TranslationElicitation_spa,3.2.4,Win32,60,5ee3df1db2f7190ba57f464a,,1,0,80,31,1,79
,,,,,,,,,,,,,,,,,,,,,,,,,,,,,,,,,,,a,5.167000055,HORQUILA,TRUE,,,,,,,136,forquilla,Catalan,Sounds/cat_forquilla.mp3,2020-06-16_10h08.59.496,TranslationElicitation_spa,3.2.4,Win32,60,5ee3df1db2f7190ba57f464a,,1,0,80,31,1,79
,,,,,,,,,,,,,,,,,,,,,,,,,,,,,,,,,,,return,5.349999905,,TRUE,,,,,,,136,forquilla,Catalan,Sounds/cat_forquilla.mp3,2020-06-16_10h08.59.496,TranslationElicitation_spa,3.2.4,Win32,60,5ee3df1db2f7190ba57f464a,5.349999905,1,0,80,31,1,79
,,,,,,,,,,,,,,,,,,,,,,,,,,,,,,,,,,,,,,,,,,,,,136,forquilla,Catalan,Sounds/cat_forquilla.mp3,2020-06-16_10h08.59.496,TranslationElicitation_spa,3.2.4,Win32,60,5ee3df1db2f7190ba57f464a,,1,0,80,31,1,79
,,,,,,,,,,,,,,,,,,,,,,,,,,,,,,,,,,,a,3.218000174,A,FALSE,,,,,,,133,estruc,Catalan,Sounds/cat_estruc.mp3,2020-06-16_10h08.59.496,TranslationElicitation_spa,3.2.4,Win32,60,5ee3df1db2f7190ba57f464a,,1,0,80,28,1,79
,,,,,,,,,,,,,,,,,,,,,,,,,,,,,,,,,,,t,3.552000046,AT,FALSE,,,,,,,133,estruc,Catalan,Sounds/cat_estruc.mp3,2020-06-16_10h08.59.496,TranslationElicitation_spa,3.2.4,Win32,60,5ee3df1db2f7190ba57f464a,,1,0,80,28,1,79
,,,,,,,,,,,,,,,,,,,,,,,,,,,,,,,,,,,r,3.719000101,ATR,FALSE,,,,,,,133,estruc,Catalan,Sounds/cat_estruc.mp3,2020-06-16_10h08.59.496,TranslationElicitation_spa,3.2.4,Win32,60,5ee3df1db2f7190ba57f464a,,1,0,80,28,1,79
,,,,,,,,,,,,,,,,,,,,,,,,,,,,,,,,,,,a,3.802000046,ATRA,FALSE,,,,,,,133,estruc,Catalan,Sounds/cat_estruc.mp3,2020-06-16_10h08.59.496,TranslationElicitation_spa,3.2.4,Win32,60,5ee3df1db2f7190ba57f464a,,1,0,80,28,1,79
,,,,,,,,,,,,,,,,,,,,,,,,,,,,,,,,,,,s,3.970999956,ATRAS,FALSE,,,,,,,133,estruc,Catalan,Sounds/cat_estruc.mp3,2020-06-16_10h08.59.496,TranslationElicitation_spa,3.2.4,Win32,60,5ee3df1db2f7190ba57f464a,,1,0,80,28,1,79
,,,,,,,,,,,,,,,,,,,,,,,,,,,,,,,,,,,return,4.404000044,,FALSE,,,,,,,133,estruc,Catalan,Sounds/cat_estruc.mp3,2020-06-16_10h08.59.496,TranslationElicitation_spa,3.2.4,Win32,60,5ee3df1db2f7190ba57f464a,4.404000044,1,0,80,28,1,79
,,,,,,,,,,,,,,,,,,,,,,,,,,,,,,,,,,,,,,,,,,,,,133,estruc,Catalan,Sounds/cat_estruc.mp3,2020-06-16_10h08.59.496,TranslationElicitation_spa,3.2.4,Win32,60,5ee3df1db2f7190ba57f464a,,1,0,80,28,1,79
,,,,,,,,,,,,,,,,,,,,,,,,,,,,,,,,,,,p,2.638000011,P,FALSE,,,,,,,163,papallona,Catalan,Sounds/cat_papallona.mp3,2020-06-16_10h08.59.496,TranslationElicitation_spa,3.2.4,Win32,60,5ee3df1db2f7190ba57f464a,,1,0,80,56,1,79
,,,,,,,,,,,,,,,,,,,,,,,,,,,,,,,,,,,a,2.802999973,PA,FALSE,,,,,,,163,papallona,Catalan,Sounds/cat_papallona.mp3,2020-06-16_10h08.59.496,TranslationElicitation_spa,3.2.4,Win32,60,5ee3df1db2f7190ba57f464a,,1,0,80,56,1,79
,,,,,,,,,,,,,,,,,,,,,,,,,,,,,,,,,,,t,3.322000027,PAT,FALSE,,,,,,,163,papallona,Catalan,Sounds/cat_papallona.mp3,2020-06-16_10h08.59.496,TranslationElicitation_spa,3.2.4,Win32,60,5ee3df1db2f7190ba57f464a,,1,0,80,56,1,79
,,,,,,,,,,,,,,,,,,,,,,,,,,,,,,,,,,,a,3.404999971,PATA,FALSE,,,,,,,163,papallona,Catalan,Sounds/cat_papallona.mp3,2020-06-16_10h08.59.496,TranslationElicitation_spa,3.2.4,Win32,60,5ee3df1db2f7190ba57f464a,,1,0,80,56,1,79
,,,,,,,,,,,,,,,,,,,,,,,,,,,,,,,,,,,t,3.471000195,PATAT,FALSE,,,,,,,163,papallona,Catalan,Sounds/cat_papallona.mp3,2020-06-16_10h08.59.496,TranslationElicitation_spa,3.2.4,Win32,60,5ee3df1db2f7190ba57f464a,,1,0,80,56,1,79
