consentKey.keys,consentKey.rt,languageL1Key.keys,languageL1Key.rt,languageL2,languageL2OralKey.keys,languageL2OralKey.rt,languageL2WrittenKey.keys,languageL2WrittenKey.rt,languageL3OralKey.keys,languageL3OralKey.rt,languageL3WrittenKey.keys,languageL3WrittenKey.rt,languageCatalanOralKey.keys,languageCatalanOralKey.rt,languageCatalanWrittenKey.keys,languageCatalanWrittenKey.rt,languageCatalanTimeKey.keys,languageCatalanTimeKey.rt,age,demoSexKey.keys,demoSexKey.rt,demoEducationKey.keys,demoEducationKey.rt,city,demoVisionKey.keys,demoVisionKey.rt,demoLanguageKey.keys,demoLanguageKey.rt,setupLocationKey.keys,setupLocationKey.rt,setupNoiseKey.keys,setupNoiseKey.rt,instructionsKeys.keys,instructionsKeys.rt,keyPressed,keyPressTime,inputText,error,trials_practice.thisRepN,trials_practice.thisTrialN,trials_practice.thisN,trials_practice.thisIndex,trials_practice.ran,trials_practice.order,trial_id,word,test_language,soundfile,date,expName,psychopyVersion,OS,frameRate,participant,trialOffset,trials.thisRepN,trials.thisTrialN,trials.thisN,trials.thisIndex,trials.ran,trials.order
space,2.605000019,e,8.42200017,,3,13.20400023,3,8.503000259,,,,,2,10.31700015,1,4.78000021,1,7.776000023,25,m,2.455000162,3,4.743000031,MURCIA,n,7.128000021,n,4.209000111,1,3.140000105,2,6.808000088,space,9.802000046,t,3.266000032,T,FALSE,1,0,5,4,1,4,179,tigre,Catalan,Sounds/cat_tigre.mp3,2020-06-13_19h14.39.169,TranslationElicitation_spa,3.2.4,Win32,60,5ee3de894809040c1c9a619a,,,,,,,
,,,,,,,,,,,,,,,,,,,,,,,,,,,,,,,,,,,i,4.082999945,TI,FALSE,1,0,5,4,1,4,179,tigre,Catalan,Sounds/cat_tigre.mp3,2020-06-13_19h14.39.169,TranslationElicitation_spa,3.2.4,Win32,60,5ee3de894809040c1c9a619a,,,,,,,
,,,,,,,,,,,,,,,,,,,,,,,,,,,,,,,,,,,g,4.266000032,TIG,FALSE,1,0,5,4,1,4,179,tigre,Catalan,Sounds/cat_tigre.mp3,2020-06-13_19h14.39.169,TranslationElicitation_spa,3.2.4,Win32,60,5ee3de894809040c1c9a619a,,,,,,,
,,,,,,,,,,,,,,,,,,,,,,,,,,,,,,,,,,,r,4.46600008,TIGR,FALSE,1,0,5,4,1,4,179,tigre,Catalan,Sounds/cat_tigre.mp3,2020-06-13_19h14.39.169,TranslationElicitation_spa,3.2.4,Win32,60,5ee3de894809040c1c9a619a,,,,,,,
,,,,,,,,,,,,,,,,,,,,,,,,,,,,,,,,,,,e,4.568000078,TIGRE,FALSE,1,0,5,4,1,4,179,tigre,Catalan,Sounds/cat_tigre.mp3,2020-06-13_19h14.39.169,TranslationElicitation_spa,3.2.4,Win32,60,5ee3de894809040c1c9a619a,,,,,,,
,,,,,,,,,,,,,,,,,,,,,,,,,,,,,,,,,,,return,5.832999945,,FALSE,1,0,5,4,1,4,179,tigre,Catalan,Sounds/cat_tigre.mp3,2020-06-13_19h14.39.169,TranslationElicitation_spa,3.2.4,Win32,60,5ee3de894809040c1c9a619a,5.832999945,,,,,,
,,,,,,,,,,,,,,,,,,,,,,,,,,,,,,,,,,,,,,,1,0,5,4,1,4,179,tigre,Catalan,Sounds/cat_tigre.mp3,2020-06-13_19h14.39.169,TranslationElicitation_spa,3.2.4,Win32,60,5ee3de894809040c1c9a619a,,,,,,,
,,,,,,,,,,,,,,,,,,,,,,,,,,,,,,,,,,,a,4.598999977,A,FALSE,1,0,5,0,1,4,109,arbre,Catalan,Sounds/cat_arbre.mp3,2020-06-13_19h14.39.169,TranslationElicitation_spa,3.2.4,Win32,60,5ee3de894809040c1c9a619a,,,,,,,
,,,,,,,,,,,,,,,,,,,,,,,,,,,,,,,,,,,r,4.933000088,AR,FALSE,1,0,5,0,1,4,109,arbre,Catalan,Sounds/cat_arbre.mp3,2020-06-13_19h14.39.169,TranslationElicitation_spa,3.2.4,Win32,60,5ee3de894809040c1c9a619a,,,,,,,
,,,,,,,,,,,,,,,,,,,,,,,,,,,,,,,,,,,b,5.315000057,ARB,FALSE,1,0,5,0,1,4,109,arbre,Catalan,Sounds/cat_arbre.mp3,2020-06-13_19h14.39.169,TranslationElicitation_spa,3.2.4,Win32,60,5ee3de894809040c1c9a619a,,,,,,,
,,,,,,,,,,,,,,,,,,,,,,,,,,,,,,,,,,,o,5.700000048,ARBO,FALSE,1,0,5,0,1,4,109,arbre,Catalan,Sounds/cat_arbre.mp3,2020-06-13_19h14.39.169,TranslationElicitation_spa,3.2.4,Win32,60,5ee3de894809040c1c9a619a,,,,,,,
,,,,,,,,,,,,,,,,,,,,,,,,,,,,,,,,,,,l,5.952000141,ARBOL,FALSE,1,0,5,0,1,4,109,arbre,Catalan,Sounds/cat_arbre.mp3,2020-06-13_19h14.39.169,TranslationElicitation_spa,3.2.4,Win32,60,5ee3de894809040c1c9a619a,,,,,,,
,,,,,,,,,,,,,,,,,,,,,,,,,,,,,,,,,,,return,8.583000183,,FALSE,1,0,5,0,1,4,109,arbre,Catalan,Sounds/cat_arbre.mp3,2020-06-13_19h14.39.169,TranslationElicitation_spa,3.2.4,Win32,60,5ee3de894809040c1c9a619a,8.583000183,,,,,,
,,,,,,,,,,,,,,,,,,,,,,,,,,,,,,,,,,,,,,,1,0,5,0,1,4,109,arbre,Catalan,Sounds/cat_arbre.mp3,2020-06-13_19h14.39.169,TranslationElicitation_spa,3.2.4,Win32,60,5ee3de894809040c1c9a619a,,,,,,,
,,,,,,,,,,,,,,,,,,,,,,,,,,,,,,,,,,,c,2.008999825,C,FALSE,1,0,5,1,1,4,147,jaqueta,Catalan,Sounds/cat_jaqueta.mp3,2020-06-13_19h14.39.169,TranslationElicitation_spa,3.2.4,Win32,60,5ee3de894809040c1c9a619a,,,,,,,
,,,,,,,,,,,,,,,,,,,,,,,,,,,,,,,,,,,h,2.139999866,CH,FALSE,1,0,5,1,1,4,147,jaqueta,Catalan,Sounds/cat_jaqueta.mp3,2020-06-13_19h14.39.169,TranslationElicitation_spa,3.2.4,Win32,60,5ee3de894809040c1c9a619a,,,,,,,
,,,,,,,,,,,,,,,,,,,,,,,,,,,,,,,,,,,a,2.289999962,CHA,FALSE,1,0,5,1,1,4,147,jaqueta,Catalan,Sounds/cat_jaqueta.mp3,2020-06-13_19h14.39.169,TranslationElicitation_spa,3.2.4,Win32,60,5ee3de894809040c1c9a619a,,,,,,,
,,,,,,,,,,,,,,,,,,,,,,,,,,,,,,,,,,,q,2.539999962,CHAQ,FALSE,1,0,5,1,1,4,147,jaqueta,Catalan,Sounds/cat_jaqueta.mp3,2020-06-13_19h14.39.169,TranslationElicitation_spa,3.2.4,Win32,60,5ee3de894809040c1c9a619a,,,,,,,
,,,,,,,,,,,,,,,,,,,,,,,,,,,,,,,,,,,u,2.673999786,CHAQU,FALSE,1,0,5,1,1,4,147,jaqueta,Catalan,Sounds/cat_jaqueta.mp3,2020-06-13_19h14.39.169,TranslationElicitation_spa,3.2.4,Win32,60,5ee3de894809040c1c9a619a,,,,,,,
,,,,,,,,,,,,,,,,,,,,,,,,,,,,,,,,,,,e,3.139999866,CHAQUE,FALSE,1,0,5,1,1,4,147,jaqueta,Catalan,Sounds/cat_jaqueta.mp3,2020-06-13_19h14.39.169,TranslationElicitation_spa,3.2.4,Win32,60,5ee3de894809040c1c9a619a,,,,,,,
,,,,,,,,,,,,,,,,,,,,,,,,,,,,,,,,,,,t,3.339999914,CHAQUET,FALSE,1,0,5,1,1,4,147,jaqueta,Catalan,Sounds/cat_jaqueta.mp3,2020-06-13_19h14.39.169,TranslationElicitation_spa,3.2.4,Win32,60,5ee3de894809040c1c9a619a,,,,,,,
,,,,,,,,,,,,,,,,,,,,,,,,,,,,,,,,,,,a,3.406999826,CHAQUETA,FALSE,1,0,5,1,1,4,147,jaqueta,Catalan,Sounds/cat_jaqueta.mp3,2020-06-13_19h14.39.169,TranslationElicitation_spa,3.2.4,Win32,60,5ee3de894809040c1c9a619a,,,,,,,
,,,,,,,,,,,,,,,,,,,,,,,,,,,,,,,,,,,return,3.840999842,,FALSE,1,0,5,1,1,4,147,jaqueta,Catalan,Sounds/cat_jaqueta.mp3,2020-06-13_19h14.39.169,TranslationElicitation_spa,3.2.4,Win32,60,5ee3de894809040c1c9a619a,3.840999842,,,,,,
,,,,,,,,,,,,,,,,,,,,,,,,,,,,,,,,,,,,,,,1,0,5,1,1,4,147,jaqueta,Catalan,Sounds/cat_jaqueta.mp3,2020-06-13_19h14.39.169,TranslationElicitation_spa,3.2.4,Win32,60,5ee3de894809040c1c9a619a,,,,,,,
,,,,,,,,,,,,,,,,,,,,,,,,,,,,,,,,,,,u,6.132000208,U,FALSE,1,0,5,2,1,4,159,onada,Catalan,Sounds/cat_onada.mp3,2020-06-13_19h14.39.169,TranslationElicitation_spa,3.2.4,Win32,60,5ee3de894809040c1c9a619a,,,,,,,
,,,,,,,,,,,,,,,,,,,,,,,,,,,,,,,,,,,n,6.351000071,UN,FALSE,1,0,5,2,1,4,159,onada,Catalan,Sounds/cat_onada.mp3,2020-06-13_19h14.39.169,TranslationElicitation_spa,3.2.4,Win32,60,5ee3de894809040c1c9a619a,,,,,,,
,,,,,,,,,,,,,,,,,,,,,,,,,,,,,,,,,,,i,6.44900012,UNI,FALSE,1,0,5,2,1,4,159,onada,Catalan,Sounds/cat_onada.mp3,2020-06-13_19h14.39.169,TranslationElicitation_spa,3.2.4,Win32,60,5ee3de894809040c1c9a619a,,,,,,,
,,,,,,,,,,,,,,,,,,,,,,,,,,,,,,,,,,,d,6.566000223,UNID,FALSE,1,0,5,2,1,4,159,onada,Catalan,Sounds/cat_onada.mp3,2020-06-13_19h14.39.169,TranslationElicitation_spa,3.2.4,Win32,60,5ee3de894809040c1c9a619a,,,,,,,
,,,,,,,,,,,,,,,,,,,,,,,,,,,,,,,,,,,a,6.6650002,UNIDA,FALSE,1,0,5,2,1,4,159,onada,Catalan,Sounds/cat_onada.mp3,2020-06-13_19h14.39.169,TranslationElicitation_spa,3.2.4,Win32,60,5ee3de894809040c1c9a619a,,,,,,,
,,,,,,,,,,,,,,,,,,,,,,,,,,,,,,,,,,,return,6.998000145,,FALSE,1,0,5,2,1,4,159,onada,Catalan,Sounds/cat_onada.mp3,2020-06-13_19h14.39.169,TranslationElicitation_spa,3.2.4,Win32,60,5ee3de894809040c1c9a619a,6.998000145,,,,,,
,,,,,,,,,,,,,,,,,,,,,,,,,,,,,,,,,,,,,,,1,0,5,2,1,4,159,onada,Catalan,Sounds/cat_onada.mp3,2020-06-13_19h14.39.169,TranslationElicitation_spa,3.2.4,Win32,60,5ee3de894809040c1c9a619a,,,,,,,
,,,,,,,,,,,,,,,,,,,,,,,,,,,,,,,,,,,p,2.319000006,P,FALSE,1,0,5,3,1,4,167,pingui,Catalan,Sounds/cat_pingui.mp3,2020-06-13_19h14.39.169,TranslationElicitation_spa,3.2.4,Win32,60,5ee3de894809040c1c9a619a,,,,,,,
,,,,,,,,,,,,,,,,,,,,,,,,,,,,,,,,,,,i,2.5,PI,FALSE,1,0,5,3,1,4,167,pingui,Catalan,Sounds/cat_pingui.mp3,2020-06-13_19h14.39.169,TranslationElicitation_spa,3.2.4,Win32,60,5ee3de894809040c1c9a619a,,,,,,,
,,,,,,,,,,,,,,,,,,,,,,,,,,,,,,,,,,,n,2.68200016,PIN,FALSE,1,0,5,3,1,4,167,pingui,Catalan,Sounds/cat_pingui.mp3,2020-06-13_19h14.39.169,TranslationElicitation_spa,3.2.4,Win32,60,5ee3de894809040c1c9a619a,,,,,,,
,,,,,,,,,,,,,,,,,,,,,,,,,,,,,,,,,,,g,2.899000168,PING,FALSE,1,0,5,3,1,4,167,pingui,Catalan,Sounds/cat_pingui.mp3,2020-06-13_19h14.39.169,TranslationElicitation_spa,3.2.4,Win32,60,5ee3de894809040c1c9a619a,,,,,,,
,,,,,,,,,,,,,,,,,,,,,,,,,,,,,,,,,,,u,3.065999985,PINGU,FALSE,1,0,5,3,1,4,167,pingui,Catalan,Sounds/cat_pingui.mp3,2020-06-13_19h14.39.169,TranslationElicitation_spa,3.2.4,Win32,60,5ee3de894809040c1c9a619a,,,,,,,
,,,,,,,,,,,,,,,,,,,,,,,,,,,,,,,,,,,i,3.299000025,PINGUI,FALSE,1,0,5,3,1,4,167,pingui,Catalan,Sounds/cat_pingui.mp3,2020-06-13_19h14.39.169,TranslationElicitation_spa,3.2.4,Win32,60,5ee3de894809040c1c9a619a,,,,,,,
,,,,,,,,,,,,,,,,,,,,,,,,,,,,,,,,,,,backspace,3.715000153,PING,TRUE,1,0,5,3,1,4,167,pingui,Catalan,Sounds/cat_pingui.mp3,2020-06-13_19h14.39.169,TranslationElicitation_spa,3.2.4,Win32,60,5ee3de894809040c1c9a619a,,,,,,,
,,,,,,,,,,,,,,,,,,,,,,,,,,,,,,,,,,,backspace,3.86500001,PI,TRUE,1,0,5,3,1,4,167,pingui,Catalan,Sounds/cat_pingui.mp3,2020-06-13_19h14.39.169,TranslationElicitation_spa,3.2.4,Win32,60,5ee3de894809040c1c9a619a,,,,,,,
,,,,,,,,,,,,,,,,,,,,,,,,,,,,,,,,,,,n,4.565999985,PIN,TRUE,1,0,5,3,1,4,167,pingui,Catalan,Sounds/cat_pingui.mp3,2020-06-13_19h14.39.169,TranslationElicitation_spa,3.2.4,Win32,60,5ee3de894809040c1c9a619a,,,,,,,
,,,,,,,,,,,,,,,,,,,,,,,,,,,,,,,,,,,g,5.219000101,PING,TRUE,1,0,5,3,1,4,167,pingui,Catalan,Sounds/cat_pingui.mp3,2020-06-13_19h14.39.169,TranslationElicitation_spa,3.2.4,Win32,60,5ee3de894809040c1c9a619a,,,,,,,
,,,,,,,,,,,,,,,,,,,,,,,,,,,,,,,,,,,apostrophe,5.666000128,PING,TRUE,1,0,5,3,1,4,167,pingui,Catalan,Sounds/cat_pingui.mp3,2020-06-13_19h14.39.169,TranslationElicitation_spa,3.2.4,Win32,60,5ee3de894809040c1c9a619a,,,,,,,
,,,,,,,,,,,,,,,,,,,,,,,,,,,,,,,,,,,u,5.933000088,PINGÚ,TRUE,1,0,5,3,1,4,167,pingui,Catalan,Sounds/cat_pingui.mp3,2020-06-13_19h14.39.169,TranslationElicitation_spa,3.2.4,Win32,60,5ee3de894809040c1c9a619a,,,,,,,
,,,,,,,,,,,,,,,,,,,,,,,,,,,,,,,,,,,i,6.299000025,PINGÚI,TRUE,1,0,5,3,1,4,167,pingui,Catalan,Sounds/cat_pingui.mp3,2020-06-13_19h14.39.169,TranslationElicitation_spa,3.2.4,Win32,60,5ee3de894809040c1c9a619a,,,,,,,
,,,,,,,,,,,,,,,,,,,,,,,,,,,,,,,,,,,backspace,6.667000055,PING,TRUE,1,0,5,3,1,4,167,pingui,Catalan,Sounds/cat_pingui.mp3,2020-06-13_19h14.39.169,TranslationElicitation_spa,3.2.4,Win32,60,5ee3de894809040c1c9a619a,,,,,,,
,,,,,,,,,,,,,,,,,,,,,,,,,,,,,,,,,,,backspace,6.815999985,PI,TRUE,1,0,5,3,1,4,167,pingui,Catalan,Sounds/cat_pingui.mp3,2020-06-13_19h14.39.169,TranslationElicitation_spa,3.2.4,Win32,60,5ee3de894809040c1c9a619a,,,,,,,
,,,,,,,,,,,,,,,,,,,,,,,,,,,,,,,,,,,n,7.502000093,PIN,TRUE,1,0,5,3,1,4,167,pingui,Catalan,Sounds/cat_pingui.mp3,2020-06-13_19h14.39.169,TranslationElicitation_spa,3.2.4,Win32,60,5ee3de894809040c1c9a619a,,,,,,,
,,,,,,,,,,,,,,,,,,,,,,,,,,,,,,,,,,,g,7.900000095,PING,TRUE,1,0,5,3,1,4,167,pingui,Catalan,Sounds/cat_pingui.mp3,2020-06-13_19h14.39.169,TranslationElicitation_spa,3.2.4,Win32,60,5ee3de894809040c1c9a619a,,,,,,,
,,,,,,,,,,,,,,,,,,,,,,,,,,,,,,,,,,,apostrophe,8.367000103,PING,TRUE,1,0,5,3,1,4,167,pingui,Catalan,Sounds/cat_pingui.mp3,2020-06-13_19h14.39.169,TranslationElicitation_spa,3.2.4,Win32,60,5ee3de894809040c1c9a619a,,,,,,,
,,,,,,,,,,,,,,,,,,,,,,,,,,,,,,,,,,,u,8.680000067,PINGÚ,TRUE,1,0,5,3,1,4,167,pingui,Catalan,Sounds/cat_pingui.mp3,2020-06-13_19h14.39.169,TranslationElicitation_spa,3.2.4,Win32,60,5ee3de894809040c1c9a619a,,,,,,,
,,,,,,,,,,,,,,,,,,,,,,,,,,,,,,,,,,,i,9.067000151,PINGÚI,TRUE,1,0,5,3,1,4,167,pingui,Catalan,Sounds/cat_pingui.mp3,2020-06-13_19h14.39.169,TranslationElicitation_spa,3.2.4,Win32,60,5ee3de894809040c1c9a619a,,,,,,,
,,,,,,,,,,,,,,,,,,,,,,,,,,,,,,,,,,,backspace,9.767000198,PING,TRUE,1,0,5,3,1,4,167,pingui,Catalan,Sounds/cat_pingui.mp3,2020-06-13_19h14.39.169,TranslationElicitation_spa,3.2.4,Win32,60,5ee3de894809040c1c9a619a,,,,,,,
,,,,,,,,,,,,,,,,,,,,,,,,,,,,,,,,,,,apostrophe,11.36800003,PING,TRUE,1,0,5,3,1,4,167,pingui,Catalan,Sounds/cat_pingui.mp3,2020-06-13_19h14.39.169,TranslationElicitation_spa,3.2.4,Win32,60,5ee3de894809040c1c9a619a,,,,,,,
,,,,,,,,,,,,,,,,,,,,,,,,,,,,,,,,,,,u,11.70200014,PINGÚ,TRUE,1,0,5,3,1,4,167,pingui,Catalan,Sounds/cat_pingui.mp3,2020-06-13_19h14.39.169,TranslationElicitation_spa,3.2.4,Win32,60,5ee3de894809040c1c9a619a,,,,,,,
,,,,,,,,,,,,,,,,,,,,,,,,,,,,,,,,,,,backspace,12.80200005,PIN,TRUE,1,0,5,3,1,4,167,pingui,Catalan,Sounds/cat_pingui.mp3,2020-06-13_19h14.39.169,TranslationElicitation_spa,3.2.4,Win32,60,5ee3de894809040c1c9a619a,,,,,,,
,,,,,,,,,,,,,,,,,,,,,,,,,,,,,,,,,,,u,13.10300016,PINU,TRUE,1,0,5,3,1,4,167,pingui,Catalan,Sounds/cat_pingui.mp3,2020-06-13_19h14.39.169,TranslationElicitation_spa,3.2.4,Win32,60,5ee3de894809040c1c9a619a,,,,,,,
,,,,,,,,,,,,,,,,,,,,,,,,,,,,,,,,,,,i,13.35300016,PINUI,TRUE,1,0,5,3,1,4,167,pingui,Catalan,Sounds/cat_pingui.mp3,2020-06-13_19h14.39.169,TranslationElicitation_spa,3.2.4,Win32,60,5ee3de894809040c1c9a619a,,,,,,,
,,,,,,,,,,,,,,,,,,,,,,,,,,,,,,,,,,,backspace,13.92000008,PIN,TRUE,1,0,5,3,1,4,167,pingui,Catalan,Sounds/cat_pingui.mp3,2020-06-13_19h14.39.169,TranslationElicitation_spa,3.2.4,Win32,60,5ee3de894809040c1c9a619a,,,,,,,
,,,,,,,,,,,,,,,,,,,,,,,,,,,,,,,,,,,g,14.70600009,PING,TRUE,1,0,5,3,1,4,167,pingui,Catalan,Sounds/cat_pingui.mp3,2020-06-13_19h14.39.169,TranslationElicitation_spa,3.2.4,Win32,60,5ee3de894809040c1c9a619a,,,,,,,
,,,,,,,,,,,,,,,,,,,,,,,,,,,,,,,,,,,u,14.93700004,PINGU,TRUE,1,0,5,3,1,4,167,pingui,Catalan,Sounds/cat_pingui.mp3,2020-06-13_19h14.39.169,TranslationElicitation_spa,3.2.4,Win32,60,5ee3de894809040c1c9a619a,,,,,,,
,,,,,,,,,,,,,,,,,,,,,,,,,,,,,,,,,,,i,15.13700008,PINGUI,TRUE,1,0,5,3,1,4,167,pingui,Catalan,Sounds/cat_pingui.mp3,2020-06-13_19h14.39.169,TranslationElicitation_spa,3.2.4,Win32,60,5ee3de894809040c1c9a619a,,,,,,,
,,,,,,,,,,,,,,,,,,,,,,,,,,,,,,,,,,,backspace,15.9380002,PING,TRUE,1,0,5,3,1,4,167,pingui,Catalan,Sounds/cat_pingui.mp3,2020-06-13_19h14.39.169,TranslationElicitation_spa,3.2.4,Win32,60,5ee3de894809040c1c9a619a,,,,,,,
,,,,,,,,,,,,,,,,,,,,,,,,,,,,,,,,,,,backspace,16.13700008,PI,TRUE,1,0,5,3,1,4,167,pingui,Catalan,Sounds/cat_pingui.mp3,2020-06-13_19h14.39.169,TranslationElicitation_spa,3.2.4,Win32,60,5ee3de894809040c1c9a619a,,,,,,,
,,,,,,,,,,,,,,,,,,,,,,,,,,,,,,,,,,,n,16.97100019,PIN,TRUE,1,0,5,3,1,4,167,pingui,Catalan,Sounds/cat_pingui.mp3,2020-06-13_19h14.39.169,TranslationElicitation_spa,3.2.4,Win32,60,5ee3de894809040c1c9a619a,,,,,,,
,,,,,,,,,,,,,,,,,,,,,,,,,,,,,,,,,,,g,18.18900013,PING,TRUE,1,0,5,3,1,4,167,pingui,Catalan,Sounds/cat_pingui.mp3,2020-06-13_19h14.39.169,TranslationElicitation_spa,3.2.4,Win32,60,5ee3de894809040c1c9a619a,,,,,,,
,,,,,,,,,,,,,,,,,,,,,,,,,,,,,,,,,,,apostrophe,20.52200007,PING,TRUE,1,0,5,3,1,4,167,pingui,Catalan,Sounds/cat_pingui.mp3,2020-06-13_19h14.39.169,TranslationElicitation_spa,3.2.4,Win32,60,5ee3de894809040c1c9a619a,,,,,,,
,,,,,,,,,,,,,,,,,,,,,,,,,,,,,,,,,,,u,21.31599998,PINGÚ,TRUE,1,0,5,3,1,4,167,pingui,Catalan,Sounds/cat_pingui.mp3,2020-06-13_19h14.39.169,TranslationElicitation_spa,3.2.4,Win32,60,5ee3de894809040c1c9a619a,,,,,,,
,,,,,,,,,,,,,,,,,,,,,,,,,,,,,,,,,,,backspace,24.62400007,PIN,TRUE,1,0,5,3,1,4,167,pingui,Catalan,Sounds/cat_pingui.mp3,2020-06-13_19h14.39.169,TranslationElicitation_spa,3.2.4,Win32,60,5ee3de894809040c1c9a619a,,,,,,,
,,,,,,,,,,,,,,,,,,,,,,,,,,,,,,,,,,,g,25.1420002,PING,TRUE,1,0,5,3,1,4,167,pingui,Catalan,Sounds/cat_pingui.mp3,2020-06-13_19h14.39.169,TranslationElicitation_spa,3.2.4,Win32,60,5ee3de894809040c1c9a619a,,,,,,,
,,,,,,,,,,,,,,,,,,,,,,,,,,,,,,,,,,,apostrophe,25.94300008,PING,TRUE,1,0,5,3,1,4,167,pingui,Catalan,Sounds/cat_pingui.mp3,2020-06-13_19h14.39.169,TranslationElicitation_spa,3.2.4,Win32,60,5ee3de894809040c1c9a619a,,,,,,,
,,,,,,,,,,,,,,,,,,,,,,,,,,,,,,,,,,,apostrophe,26.2750001,PING,TRUE,1,0,5,3,1,4,167,pingui,Catalan,Sounds/cat_pingui.mp3,2020-06-13_19h14.39.169,TranslationElicitation_spa,3.2.4,Win32,60,5ee3de894809040c1c9a619a,,,,,,,
,,,,,,,,,,,,,,,,,,,,,,,,,,,,,,,,,,,u,26.80800009,PINGÚ,TRUE,1,0,5,3,1,4,167,pingui,Catalan,Sounds/cat_pingui.mp3,2020-06-13_19h14.39.169,TranslationElicitation_spa,3.2.4,Win32,60,5ee3de894809040c1c9a619a,,,,,,,
,,,,,,,,,,,,,,,,,,,,,,,,,,,,,,,,,,,backspace,28.57599998,PIN,TRUE,1,0,5,3,1,4,167,pingui,Catalan,Sounds/cat_pingui.mp3,2020-06-13_19h14.39.169,TranslationElicitation_spa,3.2.4,Win32,60,5ee3de894809040c1c9a619a,,,,,,,
,,,,,,,,,,,,,,,,,,,,,,,,,,,,,,,,,,,g,29.19500017,PING,TRUE,1,0,5,3,1,4,167,pingui,Catalan,Sounds/cat_pingui.mp3,2020-06-13_19h14.39.169,TranslationElicitation_spa,3.2.4,Win32,60,5ee3de894809040c1c9a619a,,,,,,,
,,,,,,,,,,,,,,,,,,,,,,,,,,,,,,,,,,,apostrophe,29.82700014,PING,TRUE,1,0,5,3,1,4,167,pingui,Catalan,Sounds/cat_pingui.mp3,2020-06-13_19h14.39.169,TranslationElicitation_spa,3.2.4,Win32,60,5ee3de894809040c1c9a619a,,,,,,,
,,,,,,,,,,,,,,,,,,,,,,,,,,,,,,,,,,,u,30.16200018,PINGÚ,TRUE,1,0,5,3,1,4,167,pingui,Catalan,Sounds/cat_pingui.mp3,2020-06-13_19h14.39.169,TranslationElicitation_spa,3.2.4,Win32,60,5ee3de894809040c1c9a619a,,,,,,,
,,,,,,,,,,,,,,,,,,,,,,,,,,,,,,,,,,,backspace,31.21099997,PIN,TRUE,1,0,5,3,1,4,167,pingui,Catalan,Sounds/cat_pingui.mp3,2020-06-13_19h14.39.169,TranslationElicitation_spa,3.2.4,Win32,60,5ee3de894809040c1c9a619a,,,,,,,
,,,,,,,,,,,,,,,,,,,,,,,,,,,,,,,,,,,g,32.64499998,PING,TRUE,1,0,5,3,1,4,167,pingui,Catalan,Sounds/cat_pingui.mp3,2020-06-13_19h14.39.169,TranslationElicitation_spa,3.2.4,Win32,60,5ee3de894809040c1c9a619a,,,,,,,
,,,,,,,,,,,,,,,,,,,,,,,,,,,,,,,,,,,u,32.86100006,PINGU,TRUE,1,0,5,3,1,4,167,pingui,Catalan,Sounds/cat_pingui.mp3,2020-06-13_19h14.39.169,TranslationElicitation_spa,3.2.4,Win32,60,5ee3de894809040c1c9a619a,,,,,,,
,,,,,,,,,,,,,,,,,,,,,,,,,,,,,,,,,,,i,33.02900004,PINGUI,TRUE,1,0,5,3,1,4,167,pingui,Catalan,Sounds/cat_pingui.mp3,2020-06-13_19h14.39.169,TranslationElicitation_spa,3.2.4,Win32,60,5ee3de894809040c1c9a619a,,,,,,,
,,,,,,,,,,,,,,,,,,,,,,,,,,,,,,,,,,,n,33.39700007,PINGUIN,TRUE,1,0,5,3,1,4,167,pingui,Catalan,Sounds/cat_pingui.mp3,2020-06-13_19h14.39.169,TranslationElicitation_spa,3.2.4,Win32,60,5ee3de894809040c1c9a619a,,,,,,,
,,,,,,,,,,,,,,,,,,,,,,,,,,,,,,,,,,,o,33.49500012,PINGUINO,TRUE,1,0,5,3,1,4,167,pingui,Catalan,Sounds/cat_pingui.mp3,2020-06-13_19h14.39.169,TranslationElicitation_spa,3.2.4,Win32,60,5ee3de894809040c1c9a619a,,,,,,,
,,,,,,,,,,,,,,,,,,,,,,,,,,,,,,,,,,,return,33.96099997,,TRUE,1,0,5,3,1,4,167,pingui,Catalan,Sounds/cat_pingui.mp3,2020-06-13_19h14.39.169,TranslationElicitation_spa,3.2.4,Win32,60,5ee3de894809040c1c9a619a,33.96099997,,,,,,
,,,,,,,,,,,,,,,,,,,,,,,,,,,,,,,,,,,,,,,1,0,5,3,1,4,167,pingui,Catalan,Sounds/cat_pingui.mp3,2020-06-13_19h14.39.169,TranslationElicitation_spa,3.2.4,Win32,60,5ee3de894809040c1c9a619a,,,,,,,
,,,,,,,,,,,,,,,,,,,,,,,,,,,,,,,,,,,j,1.75999999,J,FALSE,,,,,,,142,girafa,Catalan,Sounds/cat_girafa.mp3,2020-06-13_19h14.39.169,TranslationElicitation_spa,3.2.4,Win32,60,5ee3de894809040c1c9a619a,,1,0,80,37,1,79
,,,,,,,,,,,,,,,,,,,,,,,,,,,,,,,,,,,i,1.940000057,JI,FALSE,,,,,,,142,girafa,Catalan,Sounds/cat_girafa.mp3,2020-06-13_19h14.39.169,TranslationElicitation_spa,3.2.4,Win32,60,5ee3de894809040c1c9a619a,,1,0,80,37,1,79
,,,,,,,,,,,,,,,,,,,,,,,,,,,,,,,,,,,r,2.290999889,JIR,FALSE,,,,,,,142,girafa,Catalan,Sounds/cat_girafa.mp3,2020-06-13_19h14.39.169,TranslationElicitation_spa,3.2.4,Win32,60,5ee3de894809040c1c9a619a,,1,0,80,37,1,79
,,,,,,,,,,,,,,,,,,,,,,,,,,,,,,,,,,,a,2.391000032,JIRA,FALSE,,,,,,,142,girafa,Catalan,Sounds/cat_girafa.mp3,2020-06-13_19h14.39.169,TranslationElicitation_spa,3.2.4,Win32,60,5ee3de894809040c1c9a619a,,1,0,80,37,1,79
,,,,,,,,,,,,,,,,,,,,,,,,,,,,,,,,,,,f,2.661000013,JIRAF,FALSE,,,,,,,142,girafa,Catalan,Sounds/cat_girafa.mp3,2020-06-13_19h14.39.169,TranslationElicitation_spa,3.2.4,Win32,60,5ee3de894809040c1c9a619a,,1,0,80,37,1,79
,,,,,,,,,,,,,,,,,,,,,,,,,,,,,,,,,,,a,2.733999968,JIRAFA,FALSE,,,,,,,142,girafa,Catalan,Sounds/cat_girafa.mp3,2020-06-13_19h14.39.169,TranslationElicitation_spa,3.2.4,Win32,60,5ee3de894809040c1c9a619a,,1,0,80,37,1,79
,,,,,,,,,,,,,,,,,,,,,,,,,,,,,,,,,,,return,4.141000032,,FALSE,,,,,,,142,girafa,Catalan,Sounds/cat_girafa.mp3,2020-06-13_19h14.39.169,TranslationElicitation_spa,3.2.4,Win32,60,5ee3de894809040c1c9a619a,4.141000032,1,0,80,37,1,79
,,,,,,,,,,,,,,,,,,,,,,,,,,,,,,,,,,,,,,,,,,,,,142,girafa,Catalan,Sounds/cat_girafa.mp3,2020-06-13_19h14.39.169,TranslationElicitation_spa,3.2.4,Win32,60,5ee3de894809040c1c9a619a,,1,0,80,37,1,79
,,,,,,,,,,,,,,,,,,,,,,,,,,,,,,,,,,,c,4.085000038,C,FALSE,,,,,,,119,caixa,Catalan,Sounds/cat_caixa.mp3,2020-06-13_19h14.39.169,TranslationElicitation_spa,3.2.4,Win32,60,5ee3de894809040c1c9a619a,,1,0,80,14,1,79
,,,,,,,,,,,,,,,,,,,,,,,,,,,,,,,,,,,a,5.401000023,CA,FALSE,,,,,,,119,caixa,Catalan,Sounds/cat_caixa.mp3,2020-06-13_19h14.39.169,TranslationElicitation_spa,3.2.4,Win32,60,5ee3de894809040c1c9a619a,,1,0,80,14,1,79
,,,,,,,,,,,,,,,,,,,,,,,,,,,,,,,,,,,s,5.616999865,CAS,FALSE,,,,,,,119,caixa,Catalan,Sounds/cat_caixa.mp3,2020-06-13_19h14.39.169,TranslationElicitation_spa,3.2.4,Win32,60,5ee3de894809040c1c9a619a,,1,0,80,14,1,79
,,,,,,,,,,,,,,,,,,,,,,,,,,,,,,,,,,,a,5.733999968,CASA,FALSE,,,,,,,119,caixa,Catalan,Sounds/cat_caixa.mp3,2020-06-13_19h14.39.169,TranslationElicitation_spa,3.2.4,Win32,60,5ee3de894809040c1c9a619a,,1,0,80,14,1,79
,,,,,,,,,,,,,,,,,,,,,,,,,,,,,,,,,,,return,6.231999874,,FALSE,,,,,,,119,caixa,Catalan,Sounds/cat_caixa.mp3,2020-06-13_19h14.39.169,TranslationElicitation_spa,3.2.4,Win32,60,5ee3de894809040c1c9a619a,6.231999874,1,0,80,14,1,79
,,,,,,,,,,,,,,,,,,,,,,,,,,,,,,,,,,,,,,,,,,,,,119,caixa,Catalan,Sounds/cat_caixa.mp3,2020-06-13_19h14.39.169,TranslationElicitation_spa,3.2.4,Win32,60,5ee3de894809040c1c9a619a,,1,0,80,14,1,79
,,,,,,,,,,,,,,,,,,,,,,,,,,,,,,,,,,,p,4.165999889,P,FALSE,,,,,,,116,bolquer,Catalan,Sounds/cat_bolquer.mp3,2020-06-13_19h14.39.169,TranslationElicitation_spa,3.2.4,Win32,60,5ee3de894809040c1c9a619a,,1,0,80,11,1,79
,,,,,,,,,,,,,,,,,,,,,,,,,,,,,,,,,,,o,4.298000097,PO,FALSE,,,,,,,116,bolquer,Catalan,Sounds/cat_bolquer.mp3,2020-06-13_19h14.39.169,TranslationElicitation_spa,3.2.4,Win32,60,5ee3de894809040c1c9a619a,,1,0,80,11,1,79
,,,,,,,,,,,,,,,,,,,,,,,,,,,,,,,,,,,r,4.61500001,POR,FALSE,,,,,,,116,bolquer,Catalan,Sounds/cat_bolquer.mp3,2020-06-13_19h14.39.169,TranslationElicitation_spa,3.2.4,Win32,60,5ee3de894809040c1c9a619a,,1,0,80,11,1,79
,,,,,,,,,,,,,,,,,,,,,,,,,,,,,,,,,,,q,4.981999874,PORQ,FALSE,,,,,,,116,bolquer,Catalan,Sounds/cat_bolquer.mp3,2020-06-13_19h14.39.169,TranslationElicitation_spa,3.2.4,Win32,60,5ee3de894809040c1c9a619a,,1,0,80,11,1,79
,,,,,,,,,,,,,,,,,,,,,,,,,,,,,,,,,,,u,5.115999937,PORQU,FALSE,,,,,,,116,bolquer,Catalan,Sounds/cat_bolquer.mp3,2020-06-13_19h14.39.169,TranslationElicitation_spa,3.2.4,Win32,60,5ee3de894809040c1c9a619a,,1,0,80,11,1,79
,,,,,,,,,,,,,,,,,,,,,,,,,,,,,,,,,,,apostrophe,5.282999992,PORQU,FALSE,,,,,,,116,bolquer,Catalan,Sounds/cat_bolquer.mp3,2020-06-13_19h14.39.169,TranslationElicitation_spa,3.2.4,Win32,60,5ee3de894809040c1c9a619a,,1,0,80,11,1,79
,,,,,,,,,,,,,,,,,,,,,,,,,,,,,,,,,,,e,5.398999929,PORQUÉ,FALSE,,,,,,,116,bolquer,Catalan,Sounds/cat_bolquer.mp3,2020-06-13_19h14.39.169,TranslationElicitation_spa,3.2.4,Win32,60,5ee3de894809040c1c9a619a,,1,0,80,11,1,79
,,,,,,,,,,,,,,,,,,,,,,,,,,,,,,,,,,,backspace,6.849999905,PORQ,TRUE,,,,,,,116,bolquer,Catalan,Sounds/cat_bolquer.mp3,2020-06-13_19h14.39.169,TranslationElicitation_spa,3.2.4,Win32,60,5ee3de894809040c1c9a619a,,1,0,80,11,1,79
,,,,,,,,,,,,,,,,,,,,,,,,,,,,,,,,,,,backspace,7.049999952,PO,TRUE,,,,,,,116,bolquer,Catalan,Sounds/cat_bolquer.mp3,2020-06-13_19h14.39.169,TranslationElicitation_spa,3.2.4,Win32,60,5ee3de894809040c1c9a619a,,1,0,80,11,1,79
,,,,,,,,,,,,,,,,,,,,,,,,,,,,,,,,,,,r,7.700000048,POR,TRUE,,,,,,,116,bolquer,Catalan,Sounds/cat_bolquer.mp3,2020-06-13_19h14.39.169,TranslationElicitation_spa,3.2.4,Win32,60,5ee3de894809040c1c9a619a,,1,0,80,11,1,79
,,,,,,,,,,,,,,,,,,,,,,,,,,,,,,,,,,,space,7.950000048,POR ,TRUE,,,,,,,116,bolquer,Catalan,Sounds/cat_bolquer.mp3,2020-06-13_19h14.39.169,TranslationElicitation_spa,3.2.4,Win32,60,5ee3de894809040c1c9a619a,,1,0,80,11,1,79
,,,,,,,,,,,,,,,,,,,,,,,,,,,,,,,,,,,q,8.368999958,POR Q,TRUE,,,,,,,116,bolquer,Catalan,Sounds/cat_bolquer.mp3,2020-06-13_19h14.39.169,TranslationElicitation_spa,3.2.4,Win32,60,5ee3de894809040c1c9a619a,,1,0,80,11,1,79
,,,,,,,,,,,,,,,,,,,,,,,,,,,,,,,,,,,u,8.55099988,POR QU,TRUE,,,,,,,116,bolquer,Catalan,Sounds/cat_bolquer.mp3,2020-06-13_19h14.39.169,TranslationElicitation_spa,3.2.4,Win32,60,5ee3de894809040c1c9a619a,,1,0,80,11,1,79
,,,,,,,,,,,,,,,,,,,,,,,,,,,,,,,,,,,apostrophe,8.849999905,POR QU,TRUE,,,,,,,116,bolquer,Catalan,Sounds/cat_bolquer.mp3,2020-06-13_19h14.39.169,TranslationElicitation_spa,3.2.4,Win32,60,5ee3de894809040c1c9a619a,,1,0,80,11,1,79
,,,,,,,,,,,,,,,,,,,,,,,,,,,,,,,,,,,e,8.983999968,POR QUÉ,TRUE,,,,,,,116,bolquer,Catalan,Sounds/cat_bolquer.mp3,2020-06-13_19h14.39.169,TranslationElicitation_spa,3.2.4,Win32,60,5ee3de894809040c1c9a619a,,1,0,80,11,1,79
,,,,,,,,,,,,,,,,,,,,,,,,,,,,,,,,,,,return,9.385999918,,TRUE,,,,,,,116,bolquer,Catalan,Sounds/cat_bolquer.mp3,2020-06-13_19h14.39.169,TranslationElicitation_spa,3.2.4,Win32,60,5ee3de894809040c1c9a619a,9.385999918,1,0,80,11,1,79
,,,,,,,,,,,,,,,,,,,,,,,,,,,,,,,,,,,,,,,,,,,,,116,bolquer,Catalan,Sounds/cat_bolquer.mp3,2020-06-13_19h14.39.169,TranslationElicitation_spa,3.2.4,Win32,60,5ee3de894809040c1c9a619a,,1,0,80,11,1,79
,,,,,,,,,,,,,,,,,,,,,,,,,,,,,,,,,,,return,5.388000011,,FALSE,,,,,,,161,ovella,Catalan,Sounds/cat_ovella.mp3,2020-06-13_19h14.39.169,TranslationElicitation_spa,3.2.4,Win32,60,5ee3de894809040c1c9a619a,5.388000011,1,0,80,54,1,79
,,,,,,,,,,,,,,,,,,,,,,,,,,,,,,,,,,,,,,,,,,,,,161,ovella,Catalan,Sounds/cat_ovella.mp3,2020-06-13_19h14.39.169,TranslationElicitation_spa,3.2.4,Win32,60,5ee3de894809040c1c9a619a,,1,0,80,54,1,79
,,,,,,,,,,,,,,,,,,,,,,,,,,,,,,,,,,,g,2.247999907,G,FALSE,,,,,,,143,globus,Catalan,Sounds/cat_globus.mp3,2020-06-13_19h14.39.169,TranslationElicitation_spa,3.2.4,Win32,60,5ee3de894809040c1c9a619a,,1,0,80,38,1,79
,,,,,,,,,,,,,,,,,,,,,,,,,,,,,,,,,,,l,2.36500001,GL,FALSE,,,,,,,143,globus,Catalan,Sounds/cat_globus.mp3,2020-06-13_19h14.39.169,TranslationElicitation_spa,3.2.4,Win32,60,5ee3de894809040c1c9a619a,,1,0,80,38,1,79
,,,,,,,,,,,,,,,,,,,,,,,,,,,,,,,,,,,o,2.61500001,GLO,FALSE,,,,,,,143,globus,Catalan,Sounds/cat_globus.mp3,2020-06-13_19h14.39.169,TranslationElicitation_spa,3.2.4,Win32,60,5ee3de894809040c1c9a619a,,1,0,80,38,1,79
,,,,,,,,,,,,,,,,,,,,,,,,,,,,,,,,,,,b,2.881999969,GLOB,FALSE,,,,,,,143,globus,Catalan,Sounds/cat_globus.mp3,2020-06-13_19h14.39.169,TranslationElicitation_spa,3.2.4,Win32,60,5ee3de894809040c1c9a619a,,1,0,80,38,1,79
,,,,,,,,,,,,,,,,,,,,,,,,,,,,,,,,,,,o,3.032000065,GLOBO,FALSE,,,,,,,143,globus,Catalan,Sounds/cat_globus.mp3,2020-06-13_19h14.39.169,TranslationElicitation_spa,3.2.4,Win32,60,5ee3de894809040c1c9a619a,,1,0,80,38,1,79
,,,,,,,,,,,,,,,,,,,,,,,,,,,,,,,,,,,s,3.950999975,GLOBOS,FALSE,,,,,,,143,globus,Catalan,Sounds/cat_globus.mp3,2020-06-13_19h14.39.169,TranslationElicitation_spa,3.2.4,Win32,60,5ee3de894809040c1c9a619a,,1,0,80,38,1,79
,,,,,,,,,,,,,,,,,,,,,,,,,,,,,,,,,,,return,4.381999969,,FALSE,,,,,,,143,globus,Catalan,Sounds/cat_globus.mp3,2020-06-13_19h14.39.169,TranslationElicitation_spa,3.2.4,Win32,60,5ee3de894809040c1c9a619a,4.381999969,1,0,80,38,1,79
,,,,,,,,,,,,,,,,,,,,,,,,,,,,,,,,,,,,,,,,,,,,,143,globus,Catalan,Sounds/cat_globus.mp3,2020-06-13_19h14.39.169,TranslationElicitation_spa,3.2.4,Win32,60,5ee3de894809040c1c9a619a,,1,0,80,38,1,79
,,,,,,,,,,,,,,,,,,,,,,,,,,,,,,,,,,,c,9.869000196,C,FALSE,,,,,,,106,aixeta,Catalan,Sounds/cat_aixeta.mp3,2020-06-13_19h14.39.169,TranslationElicitation_spa,3.2.4,Win32,60,5ee3de894809040c1c9a619a,,1,0,80,2,1,79
,,,,,,,,,,,,,,,,,,,,,,,,,,,,,,,,,,,h,10.30300021,CH,FALSE,,,,,,,106,aixeta,Catalan,Sounds/cat_aixeta.mp3,2020-06-13_19h14.39.169,TranslationElicitation_spa,3.2.4,Win32,60,5ee3de894809040c1c9a619a,,1,0,80,2,1,79
,,,,,,,,,,,,,,,,,,,,,,,,,,,,,,,,,,,a,10.50200009,CHA,FALSE,,,,,,,106,aixeta,Catalan,Sounds/cat_aixeta.mp3,2020-06-13_19h14.39.169,TranslationElicitation_spa,3.2.4,Win32,60,5ee3de894809040c1c9a619a,,1,0,80,2,1,79
,,,,,,,,,,,,,,,,,,,,,,,,,,,,,,,,,,,q,10.75500011,CHAQ,FALSE,,,,,,,106,aixeta,Catalan,Sounds/cat_aixeta.mp3,2020-06-13_19h14.39.169,TranslationElicitation_spa,3.2.4,Win32,60,5ee3de894809040c1c9a619a,,1,0,80,2,1,79
,,,,,,,,,,,,,,,,,,,,,,,,,,,,,,,,,,,u,10.83400011,CHAQU,FALSE,,,,,,,106,aixeta,Catalan,Sounds/cat_aixeta.mp3,2020-06-13_19h14.39.169,TranslationElicitation_spa,3.2.4,Win32,60,5ee3de894809040c1c9a619a,,1,0,80,2,1,79
,,,,,,,,,,,,,,,,,,,,,,,,,,,,,,,,,,,e,10.91800022,CHAQUE,FALSE,,,,,,,106,aixeta,Catalan,Sounds/cat_aixeta.mp3,2020-06-13_19h14.39.169,TranslationElicitation_spa,3.2.4,Win32,60,5ee3de894809040c1c9a619a,,1,0,80,2,1,79
,,,,,,,,,,,,,,,,,,,,,,,,,,,,,,,,,,,t,11.08500004,CHAQUET,FALSE,,,,,,,106,aixeta,Catalan,Sounds/cat_aixeta.mp3,2020-06-13_19h14.39.169,TranslationElicitation_spa,3.2.4,Win32,60,5ee3de894809040c1c9a619a,,1,0,80,2,1,79
,,,,,,,,,,,,,,,,,,,,,,,,,,,,,,,,,,,a,11.15300012,CHAQUETA,FALSE,,,,,,,106,aixeta,Catalan,Sounds/cat_aixeta.mp3,2020-06-13_19h14.39.169,TranslationElicitation_spa,3.2.4,Win32,60,5ee3de894809040c1c9a619a,,1,0,80,2,1,79
,,,,,,,,,,,,,,,,,,,,,,,,,,,,,,,,,,,return,11.33500004,,FALSE,,,,,,,106,aixeta,Catalan,Sounds/cat_aixeta.mp3,2020-06-13_19h14.39.169,TranslationElicitation_spa,3.2.4,Win32,60,5ee3de894809040c1c9a619a,11.33500004,1,0,80,2,1,79
,,,,,,,,,,,,,,,,,,,,,,,,,,,,,,,,,,,,,,,,,,,,,106,aixeta,Catalan,Sounds/cat_aixeta.mp3,2020-06-13_19h14.39.169,TranslationElicitation_spa,3.2.4,Win32,60,5ee3de894809040c1c9a619a,,1,0,80,2,1,79
,,,,,,,,,,,,,,,,,,,,,,,,,,,,,,,,,,,h,6.226000071,H,FALSE,,,,,,,185,ulleres,Catalan,Sounds/cat_ulleres.mp3,2020-06-13_19h14.39.169,TranslationElicitation_spa,3.2.4,Win32,60,5ee3de894809040c1c9a619a,,1,0,80,76,1,79
,,,,,,,,,,,,,,,,,,,,,,,,,,,,,,,,,,,i,6.395999908,HI,FALSE,,,,,,,185,ulleres,Catalan,Sounds/cat_ulleres.mp3,2020-06-13_19h14.39.169,TranslationElicitation_spa,3.2.4,Win32,60,5ee3de894809040c1c9a619a,,1,0,80,76,1,79
,,,,,,,,,,,,,,,,,,,,,,,,,,,,,,,,,,,l,6.608999968,HIL,FALSE,,,,,,,185,ulleres,Catalan,Sounds/cat_ulleres.mp3,2020-06-13_19h14.39.169,TranslationElicitation_spa,3.2.4,Win32,60,5ee3de894809040c1c9a619a,,1,0,80,76,1,79
,,,,,,,,,,,,,,,,,,,,,,,,,,,,,,,,,,,e,6.710999966,HILE,FALSE,,,,,,,185,ulleres,Catalan,Sounds/cat_ulleres.mp3,2020-06-13_19h14.39.169,TranslationElicitation_spa,3.2.4,Win32,60,5ee3de894809040c1c9a619a,,1,0,80,76,1,79
,,,,,,,,,,,,,,,,,,,,,,,,,,,,,,,,,,,r,6.825000048,HILER,FALSE,,,,,,,185,ulleres,Catalan,Sounds/cat_ulleres.mp3,2020-06-13_19h14.39.169,TranslationElicitation_spa,3.2.4,Win32,60,5ee3de894809040c1c9a619a,,1,0,80,76,1,79
,,,,,,,,,,,,,,,,,,,,,,,,,,,,,,,,,,,a,6.861000061,HILERA,FALSE,,,,,,,185,ulleres,Catalan,Sounds/cat_ulleres.mp3,2020-06-13_19h14.39.169,TranslationElicitation_spa,3.2.4,Win32,60,5ee3de894809040c1c9a619a,,1,0,80,76,1,79
,,,,,,,,,,,,,,,,,,,,,,,,,,,,,,,,,,,s,7.009000063,HILERAS,FALSE,,,,,,,185,ulleres,Catalan,Sounds/cat_ulleres.mp3,2020-06-13_19h14.39.169,TranslationElicitation_spa,3.2.4,Win32,60,5ee3de894809040c1c9a619a,,1,0,80,76,1,79
,,,,,,,,,,,,,,,,,,,,,,,,,,,,,,,,,,,return,7.14199996,,FALSE,,,,,,,185,ulleres,Catalan,Sounds/cat_ulleres.mp3,2020-06-13_19h14.39.169,TranslationElicitation_spa,3.2.4,Win32,60,5ee3de894809040c1c9a619a,7.141000032,1,0,80,76,1,79
,,,,,,,,,,,,,,,,,,,,,,,,,,,,,,,,,,,,,,,,,,,,,185,ulleres,Catalan,Sounds/cat_ulleres.mp3,2020-06-13_19h14.39.169,TranslationElicitation_spa,3.2.4,Win32,60,5ee3de894809040c1c9a619a,,1,0,80,76,1,79
,,,,,,,,,,,,,,,,,,,,,,,,,,,,,,,,,,,d,6.381999969,D,FALSE,,,,,,,129,dit,Catalan,Sounds/cat_dit.mp3,2020-06-13_19h14.39.169,TranslationElicitation_spa,3.2.4,Win32,60,5ee3de894809040c1c9a619a,,1,0,80,24,1,79
,,,,,,,,,,,,,,,,,,,,,,,,,,,,,,,,,,,i,6.817000151,DI,FALSE,,,,,,,129,dit,Catalan,Sounds/cat_dit.mp3,2020-06-13_19h14.39.169,TranslationElicitation_spa,3.2.4,Win32,60,5ee3de894809040c1c9a619a,,1,0,80,24,1,79
,,,,,,,,,,,,,,,,,,,,,,,,,,,,,,,,,,,t,7.736000061,DIT,FALSE,,,,,,,129,dit,Catalan,Sounds/cat_dit.mp3,2020-06-13_19h14.39.169,TranslationElicitation_spa,3.2.4,Win32,60,5ee3de894809040c1c9a619a,,1,0,80,24,1,79
,,,,,,,,,,,,,,,,,,,,,,,,,,,,,,,,,,,return,8.302000046,,FALSE,,,,,,,129,dit,Catalan,Sounds/cat_dit.mp3,2020-06-13_19h14.39.169,TranslationElicitation_spa,3.2.4,Win32,60,5ee3de894809040c1c9a619a,8.302000046,1,0,80,24,1,79
,,,,,,,,,,,,,,,,,,,,,,,,,,,,,,,,,,,,,,,,,,,,,129,dit,Catalan,Sounds/cat_dit.mp3,2020-06-13_19h14.39.169,TranslationElicitation_spa,3.2.4,Win32,60,5ee3de894809040c1c9a619a,,1,0,80,24,1,79
,,,,,,,,,,,,,,,,,,,,,,,,,,,,,,,,,,,t,2.013999939,T,FALSE,,,,,,,183,tren,Catalan,Sounds/cat_tren.mp3,2020-06-13_19h14.39.169,TranslationElicitation_spa,3.2.4,Win32,60,5ee3de894809040c1c9a619a,,1,0,80,74,1,79
,,,,,,,,,,,,,,,,,,,,,,,,,,,,,,,,,,,r,2.179999828,TR,FALSE,,,,,,,183,tren,Catalan,Sounds/cat_tren.mp3,2020-06-13_19h14.39.169,TranslationElicitation_spa,3.2.4,Win32,60,5ee3de894809040c1c9a619a,,1,0,80,74,1,79
,,,,,,,,,,,,,,,,,,,,,,,,,,,,,,,,,,,e,2.297999859,TRE,FALSE,,,,,,,183,tren,Catalan,Sounds/cat_tren.mp3,2020-06-13_19h14.39.169,TranslationElicitation_spa,3.2.4,Win32,60,5ee3de894809040c1c9a619a,,1,0,80,74,1,79
,,,,,,,,,,,,,,,,,,,,,,,,,,,,,,,,,,,n,2.464999914,TREN,FALSE,,,,,,,183,tren,Catalan,Sounds/cat_tren.mp3,2020-06-13_19h14.39.169,TranslationElicitation_spa,3.2.4,Win32,60,5ee3de894809040c1c9a619a,,1,0,80,74,1,79
,,,,,,,,,,,,,,,,,,,,,,,,,,,,,,,,,,,return,3.09800005,,FALSE,,,,,,,183,tren,Catalan,Sounds/cat_tren.mp3,2020-06-13_19h14.39.169,TranslationElicitation_spa,3.2.4,Win32,60,5ee3de894809040c1c9a619a,3.09800005,1,0,80,74,1,79
,,,,,,,,,,,,,,,,,,,,,,,,,,,,,,,,,,,,,,,,,,,,,183,tren,Catalan,Sounds/cat_tren.mp3,2020-06-13_19h14.39.169,TranslationElicitation_spa,3.2.4,Win32,60,5ee3de894809040c1c9a619a,,1,0,80,74,1,79
,,,,,,,,,,,,,,,,,,,,,,,,,,,,,,,,,,,e,1.649000168,E,FALSE,,,,,,,132,estrella,Catalan,Sounds/cat_estrella.mp3,2020-06-13_19h14.39.169,TranslationElicitation_spa,3.2.4,Win32,60,5ee3de894809040c1c9a619a,,1,0,80,27,1,79
,,,,,,,,,,,,,,,,,,,,,,,,,,,,,,,,,,,s,1.818000078,ES,FALSE,,,,,,,132,estrella,Catalan,Sounds/cat_estrella.mp3,2020-06-13_19h14.39.169,TranslationElicitation_spa,3.2.4,Win32,60,5ee3de894809040c1c9a619a,,1,0,80,27,1,79
,,,,,,,,,,,,,,,,,,,,,,,,,,,,,,,,,,,t,2.016000032,EST,FALSE,,,,,,,132,estrella,Catalan,Sounds/cat_estrella.mp3,2020-06-13_19h14.39.169,TranslationElicitation_spa,3.2.4,Win32,60,5ee3de894809040c1c9a619a,,1,0,80,27,1,79
,,,,,,,,,,,,,,,,,,,,,,,,,,,,,,,,,,,r,2.170000076,ESTR,FALSE,,,,,,,132,estrella,Catalan,Sounds/cat_estrella.mp3,2020-06-13_19h14.39.169,TranslationElicitation_spa,3.2.4,Win32,60,5ee3de894809040c1c9a619a,,1,0,80,27,1,79
,,,,,,,,,,,,,,,,,,,,,,,,,,,,,,,,,,,e,2.259000063,ESTRE,FALSE,,,,,,,132,estrella,Catalan,Sounds/cat_estrella.mp3,2020-06-13_19h14.39.169,TranslationElicitation_spa,3.2.4,Win32,60,5ee3de894809040c1c9a619a,,1,0,80,27,1,79
,,,,,,,,,,,,,,,,,,,,,,,,,,,,,,,,,,,l,2.433000088,ESTREL,FALSE,,,,,,,132,estrella,Catalan,Sounds/cat_estrella.mp3,2020-06-13_19h14.39.169,TranslationElicitation_spa,3.2.4,Win32,60,5ee3de894809040c1c9a619a,,1,0,80,27,1,79
,,,,,,,,,,,,,,,,,,,,,,,,,,,,,,,,,,,l,2.604000092,ESTRELL,FALSE,,,,,,,132,estrella,Catalan,Sounds/cat_estrella.mp3,2020-06-13_19h14.39.169,TranslationElicitation_spa,3.2.4,Win32,60,5ee3de894809040c1c9a619a,,1,0,80,27,1,79
,,,,,,,,,,,,,,,,,,,,,,,,,,,,,,,,,,,a,2.703000069,ESTRELLA,FALSE,,,,,,,132,estrella,Catalan,Sounds/cat_estrella.mp3,2020-06-13_19h14.39.169,TranslationElicitation_spa,3.2.4,Win32,60,5ee3de894809040c1c9a619a,,1,0,80,27,1,79
,,,,,,,,,,,,,,,,,,,,,,,,,,,,,,,,,,,return,3.003000021,,FALSE,,,,,,,132,estrella,Catalan,Sounds/cat_estrella.mp3,2020-06-13_19h14.39.169,TranslationElicitation_spa,3.2.4,Win32,60,5ee3de894809040c1c9a619a,3.003000021,1,0,80,27,1,79
,,,,,,,,,,,,,,,,,,,,,,,,,,,,,,,,,,,,,,,,,,,,,132,estrella,Catalan,Sounds/cat_estrella.mp3,2020-06-13_19h14.39.169,TranslationElicitation_spa,3.2.4,Win32,60,5ee3de894809040c1c9a619a,,1,0,80,27,1,79
,,,,,,,,,,,,,,,,,,,,,,,,,,,,,,,,,,,c,7.750999928,C,FALSE,,,,,,,153,mico,Catalan,Sounds/cat_mico.mp3,2020-06-13_19h14.39.169,TranslationElicitation_spa,3.2.4,Win32,60,5ee3de894809040c1c9a619a,,1,0,80,47,1,79
,,,,,,,,,,,,,,,,,,,,,,,,,,,,,,,,,,,o,7.8349998,CO,FALSE,,,,,,,153,mico,Catalan,Sounds/cat_mico.mp3,2020-06-13_19h14.39.169,TranslationElicitation_spa,3.2.4,Win32,60,5ee3de894809040c1c9a619a,,1,0,80,47,1,79
,,,,,,,,,,,,,,,,,,,,,,,,,,,,,,,,,,,n,7.949999809,CON,FALSE,,,,,,,153,mico,Catalan,Sounds/cat_mico.mp3,2020-06-13_19h14.39.169,TranslationElicitation_spa,3.2.4,Win32,60,5ee3de894809040c1c9a619a,,1,0,80,47,1,79
,,,,,,,,,,,,,,,,,,,,,,,,,,,,,,,,,,,m,8.165999889,CONM,FALSE,,,,,,,153,mico,Catalan,Sounds/cat_mico.mp3,2020-06-13_19h14.39.169,TranslationElicitation_spa,3.2.4,Win32,60,5ee3de894809040c1c9a619a,,1,0,80,47,1,79
,,,,,,,,,,,,,,,,,,,,,,,,,,,,,,,,,,,i,8.281999826,CONMI,FALSE,,,,,,,153,mico,Catalan,Sounds/cat_mico.mp3,2020-06-13_19h14.39.169,TranslationElicitation_spa,3.2.4,Win32,60,5ee3de894809040c1c9a619a,,1,0,80,47,1,79
,,,,,,,,,,,,,,,,,,,,,,,,,,,,,,,,,,,g,8.434999943,CONMIG,FALSE,,,,,,,153,mico,Catalan,Sounds/cat_mico.mp3,2020-06-13_19h14.39.169,TranslationElicitation_spa,3.2.4,Win32,60,5ee3de894809040c1c9a619a,,1,0,80,47,1,79
,,,,,,,,,,,,,,,,,,,,,,,,,,,,,,,,,,,o,8.500999928,CONMIGO,FALSE,,,,,,,153,mico,Catalan,Sounds/cat_mico.mp3,2020-06-13_19h14.39.169,TranslationElicitation_spa,3.2.4,Win32,60,5ee3de894809040c1c9a619a,,1,0,80,47,1,79
,,,,,,,,,,,,,,,,,,,,,,,,,,,,,,,,,,,return,8.86500001,,FALSE,,,,,,,153,mico,Catalan,Sounds/cat_mico.mp3,2020-06-13_19h14.39.169,TranslationElicitation_spa,3.2.4,Win32,60,5ee3de894809040c1c9a619a,8.86500001,1,0,80,47,1,79
,,,,,,,,,,,,,,,,,,,,,,,,,,,,,,,,,,,,,,,,,,,,,153,mico,Catalan,Sounds/cat_mico.mp3,2020-06-13_19h14.39.169,TranslationElicitation_spa,3.2.4,Win32,60,5ee3de894809040c1c9a619a,,1,0,80,47,1,79
,,,,,,,,,,,,,,,,,,,,,,,,,,,,,,,,,,,c,8.20299983,C,FALSE,,,,,,,125,colom,Catalan,Sounds/cat_colom.mp3,2020-06-13_19h14.39.169,TranslationElicitation_spa,3.2.4,Win32,60,5ee3de894809040c1c9a619a,,1,0,80,20,1,79
,,,,,,,,,,,,,,,,,,,,,,,,,,,,,,,,,,,o,8.785999775,CO,FALSE,,,,,,,125,colom,Catalan,Sounds/cat_colom.mp3,2020-06-13_19h14.39.169,TranslationElicitation_spa,3.2.4,Win32,60,5ee3de894809040c1c9a619a,,1,0,80,20,1,79
,,,,,,,,,,,,,,,,,,,,,,,,,,,,,,,,,,,l,8.953999996,COL,FALSE,,,,,,,125,colom,Catalan,Sounds/cat_colom.mp3,2020-06-13_19h14.39.169,TranslationElicitation_spa,3.2.4,Win32,60,5ee3de894809040c1c9a619a,,1,0,80,20,1,79
,,,,,,,,,,,,,,,,,,,,,,,,,,,,,,,,,,,u,9.136999846,COLU,FALSE,,,,,,,125,colom,Catalan,Sounds/cat_colom.mp3,2020-06-13_19h14.39.169,TranslationElicitation_spa,3.2.4,Win32,60,5ee3de894809040c1c9a619a,,1,0,80,20,1,79
,,,,,,,,,,,,,,,,,,,,,,,,,,,,,,,,,,,m,9.302999973,COLUM,FALSE,,,,,,,125,colom,Catalan,Sounds/cat_colom.mp3,2020-06-13_19h14.39.169,TranslationElicitation_spa,3.2.4,Win32,60,5ee3de894809040c1c9a619a,,1,0,80,20,1,79
,,,,,,,,,,,,,,,,,,,,,,,,,,,,,,,,,,,p,9.419999838,COLUMP,FALSE,,,,,,,125,colom,Catalan,Sounds/cat_colom.mp3,2020-06-13_19h14.39.169,TranslationElicitation_spa,3.2.4,Win32,60,5ee3de894809040c1c9a619a,,1,0,80,20,1,79
,,,,,,,,,,,,,,,,,,,,,,,,,,,,,,,,,,,i,9.569999933,COLUMPI,FALSE,,,,,,,125,colom,Catalan,Sounds/cat_colom.mp3,2020-06-13_19h14.39.169,TranslationElicitation_spa,3.2.4,Win32,60,5ee3de894809040c1c9a619a,,1,0,80,20,1,79
,,,,,,,,,,,,,,,,,,,,,,,,,,,,,,,,,,,o,9.623999834,COLUMPIO,FALSE,,,,,,,125,colom,Catalan,Sounds/cat_colom.mp3,2020-06-13_19h14.39.169,TranslationElicitation_spa,3.2.4,Win32,60,5ee3de894809040c1c9a619a,,1,0,80,20,1,79
,,,,,,,,,,,,,,,,,,,,,,,,,,,,,,,,,,,return,9.903999805,,FALSE,,,,,,,125,colom,Catalan,Sounds/cat_colom.mp3,2020-06-13_19h14.39.169,TranslationElicitation_spa,3.2.4,Win32,60,5ee3de894809040c1c9a619a,9.902999878,1,0,80,20,1,79
,,,,,,,,,,,,,,,,,,,,,,,,,,,,,,,,,,,,,,,,,,,,,125,colom,Catalan,Sounds/cat_colom.mp3,2020-06-13_19h14.39.169,TranslationElicitation_spa,3.2.4,Win32,60,5ee3de894809040c1c9a619a,,1,0,80,20,1,79
,,,,,,,,,,,,,,,,,,,,,,,,,,,,,,,,,,,a,2.298000097,A,FALSE,,,,,,,107,amanida,Catalan,Sounds/cat_amanida.mp3,2020-06-13_19h14.39.169,TranslationElicitation_spa,3.2.4,Win32,60,5ee3de894809040c1c9a619a,,1,0,80,3,1,79
,,,,,,,,,,,,,,,,,,,,,,,,,,,,,,,,,,,m,2.447999954,AM,FALSE,,,,,,,107,amanida,Catalan,Sounds/cat_amanida.mp3,2020-06-13_19h14.39.169,TranslationElicitation_spa,3.2.4,Win32,60,5ee3de894809040c1c9a619a,,1,0,80,3,1,79
,,,,,,,,,,,,,,,,,,,,,,,,,,,,,,,,,,,a,2.532999992,AMA,FALSE,,,,,,,107,amanida,Catalan,Sounds/cat_amanida.mp3,2020-06-13_19h14.39.169,TranslationElicitation_spa,3.2.4,Win32,60,5ee3de894809040c1c9a619a,,1,0,80,3,1,79
,,,,,,,,,,,,,,,,,,,,,,,,,,,,,,,,,,,n,2.652999878,AMAN,FALSE,,,,,,,107,amanida,Catalan,Sounds/cat_amanida.mp3,2020-06-13_19h14.39.169,TranslationElicitation_spa,3.2.4,Win32,60,5ee3de894809040c1c9a619a,,1,0,80,3,1,79
,,,,,,,,,,,,,,,,,,,,,,,,,,,,,,,,,,,e,2.823999882,AMANE,FALSE,,,,,,,107,amanida,Catalan,Sounds/cat_amanida.mp3,2020-06-13_19h14.39.169,TranslationElicitation_spa,3.2.4,Win32,60,5ee3de894809040c1c9a619a,,1,0,80,3,1,79
,,,,,,,,,,,,,,,,,,,,,,,,,,,,,,,,,,,c,3.01699996,AMANEC,FALSE,,,,,,,107,amanida,Catalan,Sounds/cat_amanida.mp3,2020-06-13_19h14.39.169,TranslationElicitation_spa,3.2.4,Win32,60,5ee3de894809040c1c9a619a,,1,0,80,3,1,79
,,,,,,,,,,,,,,,,,,,,,,,,,,,,,,,,,,,e,3.148000002,AMANECE,FALSE,,,,,,,107,amanida,Catalan,Sounds/cat_amanida.mp3,2020-06-13_19h14.39.169,TranslationElicitation_spa,3.2.4,Win32,60,5ee3de894809040c1c9a619a,,1,0,80,3,1,79
,,,,,,,,,,,,,,,,,,,,,,,,,,,,,,,,,,,r,3.230999947,AMANECER,FALSE,,,,,,,107,amanida,Catalan,Sounds/cat_amanida.mp3,2020-06-13_19h14.39.169,TranslationElicitation_spa,3.2.4,Win32,60,5ee3de894809040c1c9a619a,,1,0,80,3,1,79
,,,,,,,,,,,,,,,,,,,,,,,,,,,,,,,,,,,backspace,6.923000097,AMANEC,TRUE,,,,,,,107,amanida,Catalan,Sounds/cat_amanida.mp3,2020-06-13_19h14.39.169,TranslationElicitation_spa,3.2.4,Win32,60,5ee3de894809040c1c9a619a,,1,0,80,3,1,79
,,,,,,,,,,,,,,,,,,,,,,,,,,,,,,,,,,,e,7.68599987,AMANECE,TRUE,,,,,,,107,amanida,Catalan,Sounds/cat_amanida.mp3,2020-06-13_19h14.39.169,TranslationElicitation_spa,3.2.4,Win32,60,5ee3de894809040c1c9a619a,,1,0,80,3,1,79
,,,,,,,,,,,,,,,,,,,,,,,,,,,,,,,,,,,return,8.200000048,,TRUE,,,,,,,107,amanida,Catalan,Sounds/cat_amanida.mp3,2020-06-13_19h14.39.169,TranslationElicitation_spa,3.2.4,Win32,60,5ee3de894809040c1c9a619a,8.200000048,1,0,80,3,1,79
,,,,,,,,,,,,,,,,,,,,,,,,,,,,,,,,,,,,,,,,,,,,,107,amanida,Catalan,Sounds/cat_amanida.mp3,2020-06-13_19h14.39.169,TranslationElicitation_spa,3.2.4,Win32,60,5ee3de894809040c1c9a619a,,1,0,80,3,1,79
,,,,,,,,,,,,,,,,,,,,,,,,,,,,,,,,,,,c,2.819999933,C,FALSE,,,,,,,150,lloro,Catalan,Sounds/cat_lloro.mp3,2020-06-13_19h14.39.169,TranslationElicitation_spa,3.2.4,Win32,60,5ee3de894809040c1c9a619a,,1,0,80,44,1,79
,,,,,,,,,,,,,,,,,,,,,,,,,,,,,,,,,,,l,2.886999846,CL,FALSE,,,,,,,150,lloro,Catalan,Sounds/cat_lloro.mp3,2020-06-13_19h14.39.169,TranslationElicitation_spa,3.2.4,Win32,60,5ee3de894809040c1c9a619a,,1,0,80,44,1,79
,,,,,,,,,,,,,,,,,,,,,,,,,,,,,,,,,,,a,3.019999981,CLA,FALSE,,,,,,,150,lloro,Catalan,Sounds/cat_lloro.mp3,2020-06-13_19h14.39.169,TranslationElicitation_spa,3.2.4,Win32,60,5ee3de894809040c1c9a619a,,1,0,80,44,1,79
,,,,,,,,,,,,,,,,,,,,,,,,,,,,,,,,,,,r,3.172999859,CLAR,FALSE,,,,,,,150,lloro,Catalan,Sounds/cat_lloro.mp3,2020-06-13_19h14.39.169,TranslationElicitation_spa,3.2.4,Win32,60,5ee3de894809040c1c9a619a,,1,0,80,44,1,79
,,,,,,,,,,,,,,,,,,,,,,,,,,,,,,,,,,,o,3.236999989,CLARO,FALSE,,,,,,,150,lloro,Catalan,Sounds/cat_lloro.mp3,2020-06-13_19h14.39.169,TranslationElicitation_spa,3.2.4,Win32,60,5ee3de894809040c1c9a619a,,1,0,80,44,1,79
,,,,,,,,,,,,,,,,,,,,,,,,,,,,,,,,,,,return,3.753999949,,FALSE,,,,,,,150,lloro,Catalan,Sounds/cat_lloro.mp3,2020-06-13_19h14.39.169,TranslationElicitation_spa,3.2.4,Win32,60,5ee3de894809040c1c9a619a,3.753999949,1,0,80,44,1,79
,,,,,,,,,,,,,,,,,,,,,,,,,,,,,,,,,,,,,,,,,,,,,150,lloro,Catalan,Sounds/cat_lloro.mp3,2020-06-13_19h14.39.169,TranslationElicitation_spa,3.2.4,Win32,60,5ee3de894809040c1c9a619a,,1,0,80,44,1,79
,,,,,,,,,,,,,,,,,,,,,,,,,,,,,,,,,,,c,1.601999998,C,FALSE,,,,,,,138,galeta,Catalan,Sounds/cat_galeta.mp3,2020-06-13_19h14.39.169,TranslationElicitation_spa,3.2.4,Win32,60,5ee3de894809040c1c9a619a,,1,0,80,33,1,79
,,,,,,,,,,,,,,,,,,,,,,,,,,,,,,,,,,,o,1.749000072,CO,FALSE,,,,,,,138,galeta,Catalan,Sounds/cat_galeta.mp3,2020-06-13_19h14.39.169,TranslationElicitation_spa,3.2.4,Win32,60,5ee3de894809040c1c9a619a,,1,0,80,33,1,79
,,,,,,,,,,,,,,,,,,,,,,,,,,,,,,,,,,,l,1.94900012,COL,FALSE,,,,,,,138,galeta,Catalan,Sounds/cat_galeta.mp3,2020-06-13_19h14.39.169,TranslationElicitation_spa,3.2.4,Win32,60,5ee3de894809040c1c9a619a,,1,0,80,33,1,79
,,,,,,,,,,,,,,,,,,,,,,,,,,,,,,,,,,,e,2.018000126,COLE,FALSE,,,,,,,138,galeta,Catalan,Sounds/cat_galeta.mp3,2020-06-13_19h14.39.169,TranslationElicitation_spa,3.2.4,Win32,60,5ee3de894809040c1c9a619a,,1,0,80,33,1,79
,,,,,,,,,,,,,,,,,,,,,,,,,,,,,,,,,,,t,2.181999922,COLET,FALSE,,,,,,,138,galeta,Catalan,Sounds/cat_galeta.mp3,2020-06-13_19h14.39.169,TranslationElicitation_spa,3.2.4,Win32,60,5ee3de894809040c1c9a619a,,1,0,80,33,1,79
,,,,,,,,,,,,,,,,,,,,,,,,,,,,,,,,,,,a,2.246999979,COLETA,FALSE,,,,,,,138,galeta,Catalan,Sounds/cat_galeta.mp3,2020-06-13_19h14.39.169,TranslationElicitation_spa,3.2.4,Win32,60,5ee3de894809040c1c9a619a,,1,0,80,33,1,79
,,,,,,,,,,,,,,,,,,,,,,,,,,,,,,,,,,,return,2.796999931,,FALSE,,,,,,,138,galeta,Catalan,Sounds/cat_galeta.mp3,2020-06-13_19h14.39.169,TranslationElicitation_spa,3.2.4,Win32,60,5ee3de894809040c1c9a619a,2.796999931,1,0,80,33,1,79
,,,,,,,,,,,,,,,,,,,,,,,,,,,,,,,,,,,,,,,,,,,,,138,galeta,Catalan,Sounds/cat_galeta.mp3,2020-06-13_19h14.39.169,TranslationElicitation_spa,3.2.4,Win32,60,5ee3de894809040c1c9a619a,,1,0,80,33,1,79
,,,,,,,,,,,,,,,,,,,,,,,,,,,,,,,,,,,t,2.733999968,T,FALSE,,,,,,,180,tisores,Catalan,Sounds/cat_tisores.mp3,2020-06-13_19h14.39.169,TranslationElicitation_spa,3.2.4,Win32,60,5ee3de894809040c1c9a619a,,1,0,80,71,1,79
,,,,,,,,,,,,,,,,,,,,,,,,,,,,,,,,,,,e,2.914000034,TE,FALSE,,,,,,,180,tisores,Catalan,Sounds/cat_tisores.mp3,2020-06-13_19h14.39.169,TranslationElicitation_spa,3.2.4,Win32,60,5ee3de894809040c1c9a619a,,1,0,80,71,1,79
,,,,,,,,,,,,,,,,,,,,,,,,,,,,,,,,,,,s,3.128999949,TES,FALSE,,,,,,,180,tisores,Catalan,Sounds/cat_tisores.mp3,2020-06-13_19h14.39.169,TranslationElicitation_spa,3.2.4,Win32,60,5ee3de894809040c1c9a619a,,1,0,80,71,1,79
,,,,,,,,,,,,,,,,,,,,,,,,,,,,,,,,,,,o,3.246000051,TESO,FALSE,,,,,,,180,tisores,Catalan,Sounds/cat_tisores.mp3,2020-06-13_19h14.39.169,TranslationElicitation_spa,3.2.4,Win32,60,5ee3de894809040c1c9a619a,,1,0,80,71,1,79
,,,,,,,,,,,,,,,,,,,,,,,,,,,,,,,,,,,r,3.381000042,TESOR,FALSE,,,,,,,180,tisores,Catalan,Sounds/cat_tisores.mp3,2020-06-13_19h14.39.169,TranslationElicitation_spa,3.2.4,Win32,60,5ee3de894809040c1c9a619a,,1,0,80,71,1,79
,,,,,,,,,,,,,,,,,,,,,,,,,,,,,,,,,,,o,3.502000093,TESORO,FALSE,,,,,,,180,tisores,Catalan,Sounds/cat_tisores.mp3,2020-06-13_19h14.39.169,TranslationElicitation_spa,3.2.4,Win32,60,5ee3de894809040c1c9a619a,,1,0,80,71,1,79
,,,,,,,,,,,,,,,,,,,,,,,,,,,,,,,,,,,s,3.598999977,TESOROS,FALSE,,,,,,,180,tisores,Catalan,Sounds/cat_tisores.mp3,2020-06-13_19h14.39.169,TranslationElicitation_spa,3.2.4,Win32,60,5ee3de894809040c1c9a619a,,1,0,80,71,1,79
,,,,,,,,,,,,,,,,,,,,,,,,,,,,,,,,,,,return,4.210000038,,FALSE,,,,,,,180,tisores,Catalan,Sounds/cat_tisores.mp3,2020-06-13_19h14.39.169,TranslationElicitation_spa,3.2.4,Win32,60,5ee3de894809040c1c9a619a,4.210000038,1,0,80,71,1,79
,,,,,,,,,,,,,,,,,,,,,,,,,,,,,,,,,,,,,,,,,,,,,180,tisores,Catalan,Sounds/cat_tisores.mp3,2020-06-13_19h14.39.169,TranslationElicitation_spa,3.2.4,Win32,60,5ee3de894809040c1c9a619a,,1,0,80,71,1,79
,,,,,,,,,,,,,,,,,,,,,,,,,,,,,,,,,,,return,6.21600008,,FALSE,,,,,,,148,lleo,Catalan,Sounds/cat_lleo.mp3,2020-06-13_19h14.39.169,TranslationElicitation_spa,3.2.4,Win32,60,5ee3de894809040c1c9a619a,6.21600008,1,0,80,42,1,79
,,,,,,,,,,,,,,,,,,,,,,,,,,,,,,,,,,,,,,,,,,,,,148,lleo,Catalan,Sounds/cat_lleo.mp3,2020-06-13_19h14.39.169,TranslationElicitation_spa,3.2.4,Win32,60,5ee3de894809040c1c9a619a,,1,0,80,42,1,79
,,,,,,,,,,,,,,,,,,,,,,,,,,,,,,,,,,,m,20.9519999,M,FALSE,,,,,,,157,mussol,Catalan,Sounds/cat_mussol.mp3,2020-06-13_19h14.39.169,TranslationElicitation_spa,3.2.4,Win32,60,5ee3de894809040c1c9a619a,,1,0,80,51,1,79
,,,,,,,,,,,,,,,,,,,,,,,,,,,,,,,,,,,u,21.22399998,MU,FALSE,,,,,,,157,mussol,Catalan,Sounds/cat_mussol.mp3,2020-06-13_19h14.39.169,TranslationElicitation_spa,3.2.4,Win32,60,5ee3de894809040c1c9a619a,,1,0,80,51,1,79
,,,,,,,,,,,,,,,,,,,,,,,,,,,,,,,,,,,s,21.4059999,MUS,FALSE,,,,,,,157,mussol,Catalan,Sounds/cat_mussol.mp3,2020-06-13_19h14.39.169,TranslationElicitation_spa,3.2.4,Win32,60,5ee3de894809040c1c9a619a,,1,0,80,51,1,79
,,,,,,,,,,,,,,,,,,,,,,,,,,,,,,,,,,,a,24.17400002,MUSA,FALSE,,,,,,,157,mussol,Catalan,Sounds/cat_mussol.mp3,2020-06-13_19h14.39.169,TranslationElicitation_spa,3.2.4,Win32,60,5ee3de894809040c1c9a619a,,1,0,80,51,1,79
,,,,,,,,,,,,,,,,,,,,,,,,,,,,,,,,,,,return,24.65700006,,FALSE,,,,,,,157,mussol,Catalan,Sounds/cat_mussol.mp3,2020-06-13_19h14.39.169,TranslationElicitation_spa,3.2.4,Win32,60,5ee3de894809040c1c9a619a,24.65700006,1,0,80,51,1,79
,,,,,,,,,,,,,,,,,,,,,,,,,,,,,,,,,,,,,,,,,,,,,157,mussol,Catalan,Sounds/cat_mussol.mp3,2020-06-13_19h14.39.169,TranslationElicitation_spa,3.2.4,Win32,60,5ee3de894809040c1c9a619a,,1,0,80,51,1,79
,,,,,,,,,,,,,,,,,,,,,,,,,,,,,,,,,,,p,6.605999947,P,FALSE,,,,,,,171,pollastre,Catalan,Sounds/cat_pollastre.mp3,2020-06-13_19h14.39.169,TranslationElicitation_spa,3.2.4,Win32,60,5ee3de894809040c1c9a619a,,1,0,80,63,1,79
,,,,,,,,,,,,,,,,,,,,,,,,,,,,,,,,,,,a,6.640000105,PA,FALSE,,,,,,,171,pollastre,Catalan,Sounds/cat_pollastre.mp3,2020-06-13_19h14.39.169,TranslationElicitation_spa,3.2.4,Win32,60,5ee3de894809040c1c9a619a,,1,0,80,63,1,79
,,,,,,,,,,,,,,,,,,,,,,,,,,,,,,,,,,,d,6.872999907,PAD,FALSE,,,,,,,171,pollastre,Catalan,Sounds/cat_pollastre.mp3,2020-06-13_19h14.39.169,TranslationElicitation_spa,3.2.4,Win32,60,5ee3de894809040c1c9a619a,,1,0,80,63,1,79
,,,,,,,,,,,,,,,,,,,,,,,,,,,,,,,,,,,r,7.075000048,PADR,FALSE,,,,,,,171,pollastre,Catalan,Sounds/cat_pollastre.mp3,2020-06-13_19h14.39.169,TranslationElicitation_spa,3.2.4,Win32,60,5ee3de894809040c1c9a619a,,1,0,80,63,1,79
,,,,,,,,,,,,,,,,,,,,,,,,,,,,,,,,,,,a,7.160000086,PADRA,FALSE,,,,,,,171,pollastre,Catalan,Sounds/cat_pollastre.mp3,2020-06-13_19h14.39.169,TranslationElicitation_spa,3.2.4,Win32,60,5ee3de894809040c1c9a619a,,1,0,80,63,1,79
,,,,,,,,,,,,,,,,,,,,,,,,,,,,,,,,,,,s,7.309999943,PADRAS,FALSE,,,,,,,171,pollastre,Catalan,Sounds/cat_pollastre.mp3,2020-06-13_19h14.39.169,TranslationElicitation_spa,3.2.4,Win32,60,5ee3de894809040c1c9a619a,,1,0,80,63,1,79
,,,,,,,,,,,,,,,,,,,,,,,,,,,,,,,,,,,t,7.723999977,PADRAST,FALSE,,,,,,,171,pollastre,Catalan,Sounds/cat_pollastre.mp3,2020-06-13_19h14.39.169,TranslationElicitation_spa,3.2.4,Win32,60,5ee3de894809040c1c9a619a,,1,0,80,63,1,79
,,,,,,,,,,,,,,,,,,,,,,,,,,,,,,,,,,,o,8.025000095,PADRASTO,FALSE,,,,,,,171,pollastre,Catalan,Sounds/cat_pollastre.mp3,2020-06-13_19h14.39.169,TranslationElicitation_spa,3.2.4,Win32,60,5ee3de894809040c1c9a619a,,1,0,80,63,1,79
,,,,,,,,,,,,,,,,,,,,,,,,,,,,,,,,,,,backspace,8.49000001,PADRAS,TRUE,,,,,,,171,pollastre,Catalan,Sounds/cat_pollastre.mp3,2020-06-13_19h14.39.169,TranslationElicitation_spa,3.2.4,Win32,60,5ee3de894809040c1c9a619a,,1,0,80,63,1,79
,,,,,,,,,,,,,,,,,,,,,,,,,,,,,,,,,,,o,8.523000002,PADRASO,TRUE,,,,,,,171,pollastre,Catalan,Sounds/cat_pollastre.mp3,2020-06-13_19h14.39.169,TranslationElicitation_spa,3.2.4,Win32,60,5ee3de894809040c1c9a619a,,1,0,80,63,1,79
,,,,,,,,,,,,,,,,,,,,,,,,,,,,,,,,,,,backspace,9.308000088,PADRA,TRUE,,,,,,,171,pollastre,Catalan,Sounds/cat_pollastre.mp3,2020-06-13_19h14.39.169,TranslationElicitation_spa,3.2.4,Win32,60,5ee3de894809040c1c9a619a,,1,0,80,63,1,79
,,,,,,,,,,,,,,,,,,,,,,,,,,,,,,,,,,,t,9.694000006,PADRAT,TRUE,,,,,,,171,pollastre,Catalan,Sounds/cat_pollastre.mp3,2020-06-13_19h14.39.169,TranslationElicitation_spa,3.2.4,Win32,60,5ee3de894809040c1c9a619a,,1,0,80,63,1,79
,,,,,,,,,,,,,,,,,,,,,,,,,,,,,,,,,,,backspace,10.10800004,PADR,TRUE,,,,,,,171,pollastre,Catalan,Sounds/cat_pollastre.mp3,2020-06-13_19h14.39.169,TranslationElicitation_spa,3.2.4,Win32,60,5ee3de894809040c1c9a619a,,1,0,80,63,1,79
,,,,,,,,,,,,,,,,,,,,,,,,,,,,,,,,,,,s,10.22399998,PADRS,TRUE,,,,,,,171,pollastre,Catalan,Sounds/cat_pollastre.mp3,2020-06-13_19h14.39.169,TranslationElicitation_spa,3.2.4,Win32,60,5ee3de894809040c1c9a619a,,1,0,80,63,1,79
,,,,,,,,,,,,,,,,,,,,,,,,,,,,,,,,,,,backspace,10.9230001,PAD,TRUE,,,,,,,171,pollastre,Catalan,Sounds/cat_pollastre.mp3,2020-06-13_19h14.39.169,TranslationElicitation_spa,3.2.4,Win32,60,5ee3de894809040c1c9a619a,,1,0,80,63,1,79
,,,,,,,,,,,,,,,,,,,,,,,,,,,,,,,,,,,r,11.74300003,PADR,TRUE,,,,,,,171,pollastre,Catalan,Sounds/cat_pollastre.mp3,2020-06-13_19h14.39.169,TranslationElicitation_spa,3.2.4,Win32,60,5ee3de894809040c1c9a619a,,1,0,80,63,1,79
,,,,,,,,,,,,,,,,,,,,,,,,,,,,,,,,,,,a,11.852,PADRA,TRUE,,,,,,,171,pollastre,Catalan,Sounds/cat_pollastre.mp3,2020-06-13_19h14.39.169,TranslationElicitation_spa,3.2.4,Win32,60,5ee3de894809040c1c9a619a,,1,0,80,63,1,79
,,,,,,,,,,,,,,,,,,,,,,,,,,,,,,,,,,,s,12.04099989,PADRAS,TRUE,,,,,,,171,pollastre,Catalan,Sounds/cat_pollastre.mp3,2020-06-13_19h14.39.169,TranslationElicitation_spa,3.2.4,Win32,60,5ee3de894809040c1c9a619a,,1,0,80,63,1,79
,,,,,,,,,,,,,,,,,,,,,,,,,,,,,,,,,,,t,12.23300004,PADRAST,TRUE,,,,,,,171,pollastre,Catalan,Sounds/cat_pollastre.mp3,2020-06-13_19h14.39.169,TranslationElicitation_spa,3.2.4,Win32,60,5ee3de894809040c1c9a619a,,1,0,80,63,1,79
,,,,,,,,,,,,,,,,,,,,,,,,,,,,,,,,,,,r,12.36199999,PADRASTR,TRUE,,,,,,,171,pollastre,Catalan,Sounds/cat_pollastre.mp3,2020-06-13_19h14.39.169,TranslationElicitation_spa,3.2.4,Win32,60,5ee3de894809040c1c9a619a,,1,0,80,63,1,79
,,,,,,,,,,,,,,,,,,,,,,,,,,,,,,,,,,,o,12.52699995,PADRASTRO,TRUE,,,,,,,171,pollastre,Catalan,Sounds/cat_pollastre.mp3,2020-06-13_19h14.39.169,TranslationElicitation_spa,3.2.4,Win32,60,5ee3de894809040c1c9a619a,,1,0,80,63,1,79
,,,,,,,,,,,,,,,,,,,,,,,,,,,,,,,,,,,return,19.38199997,,TRUE,,,,,,,171,pollastre,Catalan,Sounds/cat_pollastre.mp3,2020-06-13_19h14.39.169,TranslationElicitation_spa,3.2.4,Win32,60,5ee3de894809040c1c9a619a,19.38199997,1,0,80,63,1,79
,,,,,,,,,,,,,,,,,,,,,,,,,,,,,,,,,,,,,,,,,,,,,171,pollastre,Catalan,Sounds/cat_pollastre.mp3,2020-06-13_19h14.39.169,TranslationElicitation_spa,3.2.4,Win32,60,5ee3de894809040c1c9a619a,,1,0,80,63,1,79
,,,,,,,,,,,,,,,,,,,,,,,,,,,,,,,,,,,s,2.244999886,S,FALSE,,,,,,,177,sol,Catalan,Sounds/cat_sol.mp3,2020-06-13_19h14.39.169,TranslationElicitation_spa,3.2.4,Win32,60,5ee3de894809040c1c9a619a,,1,0,80,69,1,79
,,,,,,,,,,,,,,,,,,,,,,,,,,,,,,,,,,,o,2.356999874,SO,FALSE,,,,,,,177,sol,Catalan,Sounds/cat_sol.mp3,2020-06-13_19h14.39.169,TranslationElicitation_spa,3.2.4,Win32,60,5ee3de894809040c1c9a619a,,1,0,80,69,1,79
,,,,,,,,,,,,,,,,,,,,,,,,,,,,,,,,,,,l,2.540999889,SOL,FALSE,,,,,,,177,sol,Catalan,Sounds/cat_sol.mp3,2020-06-13_19h14.39.169,TranslationElicitation_spa,3.2.4,Win32,60,5ee3de894809040c1c9a619a,,1,0,80,69,1,79
,,,,,,,,,,,,,,,,,,,,,,,,,,,,,,,,,,,return,2.972999811,,FALSE,,,,,,,177,sol,Catalan,Sounds/cat_sol.mp3,2020-06-13_19h14.39.169,TranslationElicitation_spa,3.2.4,Win32,60,5ee3de894809040c1c9a619a,2.972999811,1,0,80,69,1,79
,,,,,,,,,,,,,,,,,,,,,,,,,,,,,,,,,,,,,,,,,,,,,177,sol,Catalan,Sounds/cat_sol.mp3,2020-06-13_19h14.39.169,TranslationElicitation_spa,3.2.4,Win32,60,5ee3de894809040c1c9a619a,,1,0,80,69,1,79
,,,,,,,,,,,,,,,,,,,,,,,,,,,,,,,,,,,a,2.680999994,A,FALSE,,,,,,,133,estruc,Catalan,Sounds/cat_estruc.mp3,2020-06-13_19h14.39.169,TranslationElicitation_spa,3.2.4,Win32,60,5ee3de894809040c1c9a619a,,1,0,80,28,1,79
,,,,,,,,,,,,,,,,,,,,,,,,,,,,,,,,,,,v,2.818000078,AV,FALSE,,,,,,,133,estruc,Catalan,Sounds/cat_estruc.mp3,2020-06-13_19h14.39.169,TranslationElicitation_spa,3.2.4,Win32,60,5ee3de894809040c1c9a619a,,1,0,80,28,1,79
,,,,,,,,,,,,,,,,,,,,,,,,,,,,,,,,,,,e,3,AVE,FALSE,,,,,,,133,estruc,Catalan,Sounds/cat_estruc.mp3,2020-06-13_19h14.39.169,TranslationElicitation_spa,3.2.4,Win32,60,5ee3de894809040c1c9a619a,,1,0,80,28,1,79
,,,,,,,,,,,,,,,,,,,,,,,,,,,,,,,,,,,s,3.148999929,AVES,FALSE,,,,,,,133,estruc,Catalan,Sounds/cat_estruc.mp3,2020-06-13_19h14.39.169,TranslationElicitation_spa,3.2.4,Win32,60,5ee3de894809040c1c9a619a,,1,0,80,28,1,79
,,,,,,,,,,,,,,,,,,,,,,,,,,,,,,,,,,,t,3.332999945,AVEST,FALSE,,,,,,,133,estruc,Catalan,Sounds/cat_estruc.mp3,2020-06-13_19h14.39.169,TranslationElicitation_spa,3.2.4,Win32,60,5ee3de894809040c1c9a619a,,1,0,80,28,1,79
,,,,,,,,,,,,,,,,,,,,,,,,,,,,,,,,,,,r,3.496000051,AVESTR,FALSE,,,,,,,133,estruc,Catalan,Sounds/cat_estruc.mp3,2020-06-13_19h14.39.169,TranslationElicitation_spa,3.2.4,Win32,60,5ee3de894809040c1c9a619a,,1,0,80,28,1,79
,,,,,,,,,,,,,,,,,,,,,,,,,,,,,,,,,,,u,3.697999954,AVESTRU,FALSE,,,,,,,133,estruc,Catalan,Sounds/cat_estruc.mp3,2020-06-13_19h14.39.169,TranslationElicitation_spa,3.2.4,Win32,60,5ee3de894809040c1c9a619a,,1,0,80,28,1,79
,,,,,,,,,,,,,,,,,,,,,,,,,,,,,,,,,,,z,3.812999964,AVESTRUZ,FALSE,,,,,,,133,estruc,Catalan,Sounds/cat_estruc.mp3,2020-06-13_19h14.39.169,TranslationElicitation_spa,3.2.4,Win32,60,5ee3de894809040c1c9a619a,,1,0,80,28,1,79
,,,,,,,,,,,,,,,,,,,,,,,,,,,,,,,,,,,return,4.231999874,,FALSE,,,,,,,133,estruc,Catalan,Sounds/cat_estruc.mp3,2020-06-13_19h14.39.169,TranslationElicitation_spa,3.2.4,Win32,60,5ee3de894809040c1c9a619a,4.231999874,1,0,80,28,1,79
,,,,,,,,,,,,,,,,,,,,,,,,,,,,,,,,,,,,,,,,,,,,,133,estruc,Catalan,Sounds/cat_estruc.mp3,2020-06-13_19h14.39.169,TranslationElicitation_spa,3.2.4,Win32,60,5ee3de894809040c1c9a619a,,1,0,80,28,1,79
,,,,,,,,,,,,,,,,,,,,,,,,,,,,,,,,,,,c,5.700000048,C,FALSE,,,,,,,189,zebra,Catalan,Sounds/cat_zebra.mp3,2020-06-13_19h14.39.169,TranslationElicitation_spa,3.2.4,Win32,60,5ee3de894809040c1c9a619a,,1,0,80,79,1,79
,,,,,,,,,,,,,,,,,,,,,,,,,,,,,,,,,,,e,6.202000141,CE,FALSE,,,,,,,189,zebra,Catalan,Sounds/cat_zebra.mp3,2020-06-13_19h14.39.169,TranslationElicitation_spa,3.2.4,Win32,60,5ee3de894809040c1c9a619a,,1,0,80,79,1,79
,,,,,,,,,,,,,,,,,,,,,,,,,,,,,,,,,,,b,6.723999977,CEB,FALSE,,,,,,,189,zebra,Catalan,Sounds/cat_zebra.mp3,2020-06-13_19h14.39.169,TranslationElicitation_spa,3.2.4,Win32,60,5ee3de894809040c1c9a619a,,1,0,80,79,1,79
,,,,,,,,,,,,,,,,,,,,,,,,,,,,,,,,,,,r,6.983999968,CEBR,FALSE,,,,,,,189,zebra,Catalan,Sounds/cat_zebra.mp3,2020-06-13_19h14.39.169,TranslationElicitation_spa,3.2.4,Win32,60,5ee3de894809040c1c9a619a,,1,0,80,79,1,79
,,,,,,,,,,,,,,,,,,,,,,,,,,,,,,,,,,,a,7.067000151,CEBRA,FALSE,,,,,,,189,zebra,Catalan,Sounds/cat_zebra.mp3,2020-06-13_19h14.39.169,TranslationElicitation_spa,3.2.4,Win32,60,5ee3de894809040c1c9a619a,,1,0,80,79,1,79
,,,,,,,,,,,,,,,,,,,,,,,,,,,,,,,,,,,return,7.46600008,,FALSE,,,,,,,189,zebra,Catalan,Sounds/cat_zebra.mp3,2020-06-13_19h14.39.169,TranslationElicitation_spa,3.2.4,Win32,60,5ee3de894809040c1c9a619a,7.46600008,1,0,80,79,1,79
,,,,,,,,,,,,,,,,,,,,,,,,,,,,,,,,,,,,,,,,,,,,,189,zebra,Catalan,Sounds/cat_zebra.mp3,2020-06-13_19h14.39.169,TranslationElicitation_spa,3.2.4,Win32,60,5ee3de894809040c1c9a619a,,1,0,80,79,1,79
,,,,,,,,,,,,,,,,,,,,,,,,,,,,,,,,,,,p,3.48300004,P,FALSE,,,,,,,115,bolet,Catalan,Sounds/cat_bolet.mp3,2020-06-13_19h14.39.169,TranslationElicitation_spa,3.2.4,Win32,60,5ee3de894809040c1c9a619a,,1,0,80,10,1,79
,,,,,,,,,,,,,,,,,,,,,,,,,,,,,,,,,,,u,4.049000025,PU,FALSE,,,,,,,115,bolet,Catalan,Sounds/cat_bolet.mp3,2020-06-13_19h14.39.169,TranslationElicitation_spa,3.2.4,Win32,60,5ee3de894809040c1c9a619a,,1,0,80,10,1,79
,,,,,,,,,,,,,,,,,,,,,,,,,,,,,,,,,,,r,4.167000055,PUR,FALSE,,,,,,,115,bolet,Catalan,Sounds/cat_bolet.mp3,2020-06-13_19h14.39.169,TranslationElicitation_spa,3.2.4,Win32,60,5ee3de894809040c1c9a619a,,1,0,80,10,1,79
,,,,,,,,,,,,,,,,,,,,,,,,,,,,,,,,,,,e,4.767000198,PURE,FALSE,,,,,,,115,bolet,Catalan,Sounds/cat_bolet.mp3,2020-06-13_19h14.39.169,TranslationElicitation_spa,3.2.4,Win32,60,5ee3de894809040c1c9a619a,,1,0,80,10,1,79
,,,,,,,,,,,,,,,,,,,,,,,,,,,,,,,,,,,backspace,5.47300005,PU,TRUE,,,,,,,115,bolet,Catalan,Sounds/cat_bolet.mp3,2020-06-13_19h14.39.169,TranslationElicitation_spa,3.2.4,Win32,60,5ee3de894809040c1c9a619a,,1,0,80,10,1,79
,,,,,,,,,,,,,,,,,,,,,,,,,,,,,,,,,,,r,6.049000025,PUR,TRUE,,,,,,,115,bolet,Catalan,Sounds/cat_bolet.mp3,2020-06-13_19h14.39.169,TranslationElicitation_spa,3.2.4,Win32,60,5ee3de894809040c1c9a619a,,1,0,80,10,1,79
,,,,,,,,,,,,,,,,,,,,,,,,,,,,,,,,,,,apostrophe,6.313000202,PUR,TRUE,,,,,,,115,bolet,Catalan,Sounds/cat_bolet.mp3,2020-06-13_19h14.39.169,TranslationElicitation_spa,3.2.4,Win32,60,5ee3de894809040c1c9a619a,,1,0,80,10,1,79
,,,,,,,,,,,,,,,,,,,,,,,,,,,,,,,,,,,e,6.44900012,PURÉ,TRUE,,,,,,,115,bolet,Catalan,Sounds/cat_bolet.mp3,2020-06-13_19h14.39.169,TranslationElicitation_spa,3.2.4,Win32,60,5ee3de894809040c1c9a619a,,1,0,80,10,1,79
,,,,,,,,,,,,,,,,,,,,,,,,,,,,,,,,,,,return,6.766000032,,TRUE,,,,,,,115,bolet,Catalan,Sounds/cat_bolet.mp3,2020-06-13_19h14.39.169,TranslationElicitation_spa,3.2.4,Win32,60,5ee3de894809040c1c9a619a,6.766000032,1,0,80,10,1,79
,,,,,,,,,,,,,,,,,,,,,,,,,,,,,,,,,,,,,,,,,,,,,115,bolet,Catalan,Sounds/cat_bolet.mp3,2020-06-13_19h14.39.169,TranslationElicitation_spa,3.2.4,Win32,60,5ee3de894809040c1c9a619a,,1,0,80,10,1,79
,,,,,,,,,,,,,,,,,,,,,,,,,,,,,,,,,,,c,6.732999802,C,FALSE,,,,,,,145,got,Catalan,Sounds/cat_got.mp3,2020-06-13_19h14.39.169,TranslationElicitation_spa,3.2.4,Win32,60,5ee3de894809040c1c9a619a,,1,0,80,40,1,79
,,,,,,,,,,,,,,,,,,,,,,,,,,,,,,,,,,,o,6.816999912,CO,FALSE,,,,,,,145,got,Catalan,Sounds/cat_got.mp3,2020-06-13_19h14.39.169,TranslationElicitation_spa,3.2.4,Win32,60,5ee3de894809040c1c9a619a,,1,0,80,40,1,79
,,,,,,,,,,,,,,,,,,,,,,,,,,,,,,,,,,,t,6.976999998,COT,FALSE,,,,,,,145,got,Catalan,Sounds/cat_got.mp3,2020-06-13_19h14.39.169,TranslationElicitation_spa,3.2.4,Win32,60,5ee3de894809040c1c9a619a,,1,0,80,40,1,79
,,,,,,,,,,,,,,,,,,,,,,,,,,,,,,,,,,,a,7.042999983,COTA,FALSE,,,,,,,145,got,Catalan,Sounds/cat_got.mp3,2020-06-13_19h14.39.169,TranslationElicitation_spa,3.2.4,Win32,60,5ee3de894809040c1c9a619a,,1,0,80,40,1,79
,,,,,,,,,,,,,,,,,,,,,,,,,,,,,,,,,,,backspace,7.416999817,CO,TRUE,,,,,,,145,got,Catalan,Sounds/cat_got.mp3,2020-06-13_19h14.39.169,TranslationElicitation_spa,3.2.4,Win32,60,5ee3de894809040c1c9a619a,,1,0,80,40,1,79
,,,,,,,,,,,,,,,,,,,,,,,,,,,,,,,,,,,backspace,7.626999855,,TRUE,,,,,,,145,got,Catalan,Sounds/cat_got.mp3,2020-06-13_19h14.39.169,TranslationElicitation_spa,3.2.4,Win32,60,5ee3de894809040c1c9a619a,,1,0,80,40,1,79
,,,,,,,,,,,,,,,,,,,,,,,,,,,,,,,,,,,backspace,7.77699995,,TRUE,,,,,,,145,got,Catalan,Sounds/cat_got.mp3,2020-06-13_19h14.39.169,TranslationElicitation_spa,3.2.4,Win32,60,5ee3de894809040c1c9a619a,,1,0,80,40,1,79
,,,,,,,,,,,,,,,,,,,,,,,,,,,,,,,,,,,g,8.336999893,G,TRUE,,,,,,,145,got,Catalan,Sounds/cat_got.mp3,2020-06-13_19h14.39.169,TranslationElicitation_spa,3.2.4,Win32,60,5ee3de894809040c1c9a619a,,1,0,80,40,1,79
,,,,,,,,,,,,,,,,,,,,,,,,,,,,,,,,,,,o,8.426999807,GO,TRUE,,,,,,,145,got,Catalan,Sounds/cat_got.mp3,2020-06-13_19h14.39.169,TranslationElicitation_spa,3.2.4,Win32,60,5ee3de894809040c1c9a619a,,1,0,80,40,1,79
,,,,,,,,,,,,,,,,,,,,,,,,,,,,,,,,,,,t,8.5849998,GOT,TRUE,,,,,,,145,got,Catalan,Sounds/cat_got.mp3,2020-06-13_19h14.39.169,TranslationElicitation_spa,3.2.4,Win32,60,5ee3de894809040c1c9a619a,,1,0,80,40,1,79
,,,,,,,,,,,,,,,,,,,,,,,,,,,,,,,,,,,a,8.748999834,GOTA,TRUE,,,,,,,145,got,Catalan,Sounds/cat_got.mp3,2020-06-13_19h14.39.169,TranslationElicitation_spa,3.2.4,Win32,60,5ee3de894809040c1c9a619a,,1,0,80,40,1,79
,,,,,,,,,,,,,,,,,,,,,,,,,,,,,,,,,,,return,9.057999849,,TRUE,,,,,,,145,got,Catalan,Sounds/cat_got.mp3,2020-06-13_19h14.39.169,TranslationElicitation_spa,3.2.4,Win32,60,5ee3de894809040c1c9a619a,9.057999849,1,0,80,40,1,79
,,,,,,,,,,,,,,,,,,,,,,,,,,,,,,,,,,,,,,,,,,,,,145,got,Catalan,Sounds/cat_got.mp3,2020-06-13_19h14.39.169,TranslationElicitation_spa,3.2.4,Win32,60,5ee3de894809040c1c9a619a,,1,0,80,40,1,79
,,,,,,,,,,,,,,,,,,,,,,,,,,,,,,,,,,,g,1.334000111,G,FALSE,,,,,,,146,guitarra,Catalan,Sounds/cat_guitarra.mp3,2020-06-13_19h14.39.169,TranslationElicitation_spa,3.2.4,Win32,60,5ee3de894809040c1c9a619a,,1,0,80,41,1,79
,,,,,,,,,,,,,,,,,,,,,,,,,,,,,,,,,,,u,1.588999987,GU,FALSE,,,,,,,146,guitarra,Catalan,Sounds/cat_guitarra.mp3,2020-06-13_19h14.39.169,TranslationElicitation_spa,3.2.4,Win32,60,5ee3de894809040c1c9a619a,,1,0,80,41,1,79
,,,,,,,,,,,,,,,,,,,,,,,,,,,,,,,,,,,i,1.779000044,GUI,FALSE,,,,,,,146,guitarra,Catalan,Sounds/cat_guitarra.mp3,2020-06-13_19h14.39.169,TranslationElicitation_spa,3.2.4,Win32,60,5ee3de894809040c1c9a619a,,1,0,80,41,1,79
,,,,,,,,,,,,,,,,,,,,,,,,,,,,,,,,,,,t,1.999000072,GUIT,FALSE,,,,,,,146,guitarra,Catalan,Sounds/cat_guitarra.mp3,2020-06-13_19h14.39.169,TranslationElicitation_spa,3.2.4,Win32,60,5ee3de894809040c1c9a619a,,1,0,80,41,1,79
,,,,,,,,,,,,,,,,,,,,,,,,,,,,,,,,,,,a,2.065999985,GUITA,FALSE,,,,,,,146,guitarra,Catalan,Sounds/cat_guitarra.mp3,2020-06-13_19h14.39.169,TranslationElicitation_spa,3.2.4,Win32,60,5ee3de894809040c1c9a619a,,1,0,80,41,1,79
,,,,,,,,,,,,,,,,,,,,,,,,,,,,,,,,,,,r,2.32400012,GUITAR,FALSE,,,,,,,146,guitarra,Catalan,Sounds/cat_guitarra.mp3,2020-06-13_19h14.39.169,TranslationElicitation_spa,3.2.4,Win32,60,5ee3de894809040c1c9a619a,,1,0,80,41,1,79
,,,,,,,,,,,,,,,,,,,,,,,,,,,,,,,,,,,r,2.448000193,GUITARR,FALSE,,,,,,,146,guitarra,Catalan,Sounds/cat_guitarra.mp3,2020-06-13_19h14.39.169,TranslationElicitation_spa,3.2.4,Win32,60,5ee3de894809040c1c9a619a,,1,0,80,41,1,79
,,,,,,,,,,,,,,,,,,,,,,,,,,,,,,,,,,,a,2.738000154,GUITARRA,FALSE,,,,,,,146,guitarra,Catalan,Sounds/cat_guitarra.mp3,2020-06-13_19h14.39.169,TranslationElicitation_spa,3.2.4,Win32,60,5ee3de894809040c1c9a619a,,1,0,80,41,1,79
,,,,,,,,,,,,,,,,,,,,,,,,,,,,,,,,,,,return,3.138000011,,FALSE,,,,,,,146,guitarra,Catalan,Sounds/cat_guitarra.mp3,2020-06-13_19h14.39.169,TranslationElicitation_spa,3.2.4,Win32,60,5ee3de894809040c1c9a619a,3.138000011,1,0,80,41,1,79
,,,,,,,,,,,,,,,,,,,,,,,,,,,,,,,,,,,,,,,,,,,,,146,guitarra,Catalan,Sounds/cat_guitarra.mp3,2020-06-13_19h14.39.169,TranslationElicitation_spa,3.2.4,Win32,60,5ee3de894809040c1c9a619a,,1,0,80,41,1,79
,,,,,,,,,,,,,,,,,,,,,,,,,,,,,,,,,,,t,2.247000217,T,FALSE,,,,,,,178,taronja,Catalan,Sounds/cat_taronja.mp3,2020-06-13_19h14.39.169,TranslationElicitation_spa,3.2.4,Win32,60,5ee3de894809040c1c9a619a,,1,0,80,70,1,79
,,,,,,,,,,,,,,,,,,,,,,,,,,,,,,,,,,,r,2.481000185,TR,FALSE,,,,,,,178,taronja,Catalan,Sounds/cat_taronja.mp3,2020-06-13_19h14.39.169,TranslationElicitation_spa,3.2.4,Win32,60,5ee3de894809040c1c9a619a,,1,0,80,70,1,79
,,,,,,,,,,,,,,,,,,,,,,,,,,,,,,,,,,,a,2.5,TRA,FALSE,,,,,,,178,taronja,Catalan,Sounds/cat_taronja.mp3,2020-06-13_19h14.39.169,TranslationElicitation_spa,3.2.4,Win32,60,5ee3de894809040c1c9a619a,,1,0,80,70,1,79
,,,,,,,,,,,,,,,,,,,,,,,,,,,,,,,,,,,j,3.703000069,TRAJ,FALSE,,,,,,,178,taronja,Catalan,Sounds/cat_taronja.mp3,2020-06-13_19h14.39.169,TranslationElicitation_spa,3.2.4,Win32,60,5ee3de894809040c1c9a619a,,1,0,80,70,1,79
,,,,,,,,,,,,,,,,,,,,,,,,,,,,,,,,,,,a,3.851000071,TRAJA,FALSE,,,,,,,178,taronja,Catalan,Sounds/cat_taronja.mp3,2020-06-13_19h14.39.169,TranslationElicitation_spa,3.2.4,Win32,60,5ee3de894809040c1c9a619a,,1,0,80,70,1,79
,,,,,,,,,,,,,,,,,,,,,,,,,,,,,,,,,,,backspace,4.213000059,TRA,TRUE,,,,,,,178,taronja,Catalan,Sounds/cat_taronja.mp3,2020-06-13_19h14.39.169,TranslationElicitation_spa,3.2.4,Win32,60,5ee3de894809040c1c9a619a,,1,0,80,70,1,79
,,,,,,,,,,,,,,,,,,,,,,,,,,,,,,,,,,,e,4.315000057,TRAE,TRUE,,,,,,,178,taronja,Catalan,Sounds/cat_taronja.mp3,2020-06-13_19h14.39.169,TranslationElicitation_spa,3.2.4,Win32,60,5ee3de894809040c1c9a619a,,1,0,80,70,1,79
,,,,,,,,,,,,,,,,,,,,,,,,,,,,,,,,,,,backspace,5.093000174,TR,TRUE,,,,,,,178,taronja,Catalan,Sounds/cat_taronja.mp3,2020-06-13_19h14.39.169,TranslationElicitation_spa,3.2.4,Win32,60,5ee3de894809040c1c9a619a,,1,0,80,70,1,79
,,,,,,,,,,,,,,,,,,,,,,,,,,,,,,,,,,,a,5.548000097,TRA,TRUE,,,,,,,178,taronja,Catalan,Sounds/cat_taronja.mp3,2020-06-13_19h14.39.169,TranslationElicitation_spa,3.2.4,Win32,60,5ee3de894809040c1c9a619a,,1,0,80,70,1,79
,,,,,,,,,,,,,,,,,,,,,,,,,,,,,,,,,,,j,5.815000057,TRAJ,TRUE,,,,,,,178,taronja,Catalan,Sounds/cat_taronja.mp3,2020-06-13_19h14.39.169,TranslationElicitation_spa,3.2.4,Win32,60,5ee3de894809040c1c9a619a,,1,0,80,70,1,79
,,,,,,,,,,,,,,,,,,,,,,,,,,,,,,,,,,,e,5.93200016,TRAJE,TRUE,,,,,,,178,taronja,Catalan,Sounds/cat_taronja.mp3,2020-06-13_19h14.39.169,TranslationElicitation_spa,3.2.4,Win32,60,5ee3de894809040c1c9a619a,,1,0,80,70,1,79
,,,,,,,,,,,,,,,,,,,,,,,,,,,,,,,,,,,return,6.275000095,,TRUE,,,,,,,178,taronja,Catalan,Sounds/cat_taronja.mp3,2020-06-13_19h14.39.169,TranslationElicitation_spa,3.2.4,Win32,60,5ee3de894809040c1c9a619a,6.275000095,1,0,80,70,1,79
,,,,,,,,,,,,,,,,,,,,,,,,,,,,,,,,,,,,,,,,,,,,,178,taronja,Catalan,Sounds/cat_taronja.mp3,2020-06-13_19h14.39.169,TranslationElicitation_spa,3.2.4,Win32,60,5ee3de894809040c1c9a619a,,1,0,80,70,1,79
,,,,,,,,,,,,,,,,,,,,,,,,,,,,,,,,,,,p,1.305000067,P,FALSE,,,,,,,164,patata,Catalan,Sounds/cat_patata.mp3,2020-06-13_19h14.39.169,TranslationElicitation_spa,3.2.4,Win32,60,5ee3de894809040c1c9a619a,,1,0,80,57,1,79
,,,,,,,,,,,,,,,,,,,,,,,,,,,,,,,,,,,t,1.332000017,PT,FALSE,,,,,,,164,patata,Catalan,Sounds/cat_patata.mp3,2020-06-13_19h14.39.169,TranslationElicitation_spa,3.2.4,Win32,60,5ee3de894809040c1c9a619a,,1,0,80,57,1,79
,,,,,,,,,,,,,,,,,,,,,,,,,,,,,,,,,,,a,1.381999969,PTA,FALSE,,,,,,,164,patata,Catalan,Sounds/cat_patata.mp3,2020-06-13_19h14.39.169,TranslationElicitation_spa,3.2.4,Win32,60,5ee3de894809040c1c9a619a,,1,0,80,57,1,79
,,,,,,,,,,,,,,,,,,,,,,,,,,,,,,,,,,,t,1.532000065,PTAT,FALSE,,,,,,,164,patata,Catalan,Sounds/cat_patata.mp3,2020-06-13_19h14.39.169,TranslationElicitation_spa,3.2.4,Win32,60,5ee3de894809040c1c9a619a,,1,0,80,57,1,79
,,,,,,,,,,,,,,,,,,,,,,,,,,,,,,,,,,,a,1.598999977,PTATA,FALSE,,,,,,,164,patata,Catalan,Sounds/cat_patata.mp3,2020-06-13_19h14.39.169,TranslationElicitation_spa,3.2.4,Win32,60,5ee3de894809040c1c9a619a,,1,0,80,57,1,79
,,,,,,,,,,,,,,,,,,,,,,,,,,,,,,,,,,,backspace,1.98300004,PTA,TRUE,,,,,,,164,patata,Catalan,Sounds/cat_patata.mp3,2020-06-13_19h14.39.169,TranslationElicitation_spa,3.2.4,Win32,60,5ee3de894809040c1c9a619a,,1,0,80,57,1,79
,,,,,,,,,,,,,,,,,,,,,,,,,,,,,,,,,,,backspace,2.348999977,P,TRUE,,,,,,,164,patata,Catalan,Sounds/cat_patata.mp3,2020-06-13_19h14.39.169,TranslationElicitation_spa,3.2.4,Win32,60,5ee3de894809040c1c9a619a,,1,0,80,57,1,79
,,,,,,,,,,,,,,,,,,,,,,,,,,,,,,,,,,,a,2.815999985,PA,TRUE,,,,,,,164,patata,Catalan,Sounds/cat_patata.mp3,2020-06-13_19h14.39.169,TranslationElicitation_spa,3.2.4,Win32,60,5ee3de894809040c1c9a619a,,1,0,80,57,1,79
,,,,,,,,,,,,,,,,,,,,,,,,,,,,,,,,,,,t,3.049999952,PAT,TRUE,,,,,,,164,patata,Catalan,Sounds/cat_patata.mp3,2020-06-13_19h14.39.169,TranslationElicitation_spa,3.2.4,Win32,60,5ee3de894809040c1c9a619a,,1,0,80,57,1,79
,,,,,,,,,,,,,,,,,,,,,,,,,,,,,,,,,,,a,3.099999905,PATA,TRUE,,,,,,,164,patata,Catalan,Sounds/cat_patata.mp3,2020-06-13_19h14.39.169,TranslationElicitation_spa,3.2.4,Win32,60,5ee3de894809040c1c9a619a,,1,0,80,57,1,79
,,,,,,,,,,,,,,,,,,,,,,,,,,,,,,,,,,,t,3.250999928,PATAT,TRUE,,,,,,,164,patata,Catalan,Sounds/cat_patata.mp3,2020-06-13_19h14.39.169,TranslationElicitation_spa,3.2.4,Win32,60,5ee3de894809040c1c9a619a,,1,0,80,57,1,79
,,,,,,,,,,,,,,,,,,,,,,,,,,,,,,,,,,,a,3.316999912,PATATA,TRUE,,,,,,,164,patata,Catalan,Sounds/cat_patata.mp3,2020-06-13_19h14.39.169,TranslationElicitation_spa,3.2.4,Win32,60,5ee3de894809040c1c9a619a,,1,0,80,57,1,79
,,,,,,,,,,,,,,,,,,,,,,,,,,,,,,,,,,,return,3.665999889,,TRUE,,,,,,,164,patata,Catalan,Sounds/cat_patata.mp3,2020-06-13_19h14.39.169,TranslationElicitation_spa,3.2.4,Win32,60,5ee3de894809040c1c9a619a,3.665999889,1,0,80,57,1,79
,,,,,,,,,,,,,,,,,,,,,,,,,,,,,,,,,,,,,,,,,,,,,164,patata,Catalan,Sounds/cat_patata.mp3,2020-06-13_19h14.39.169,TranslationElicitation_spa,3.2.4,Win32,60,5ee3de894809040c1c9a619a,,1,0,80,57,1,79
,,,,,,,,,,,,,,,,,,,,,,,,,,,,,,,,,,,l,2.213999987,L,FALSE,,,,,,,151,lluna,Catalan,Sounds/cat_lluna.mp3,2020-06-13_19h14.39.169,TranslationElicitation_spa,3.2.4,Win32,60,5ee3de894809040c1c9a619a,,1,0,80,45,1,79
,,,,,,,,,,,,,,,,,,,,,,,,,,,,,,,,,,,u,2.503999949,LU,FALSE,,,,,,,151,lluna,Catalan,Sounds/cat_lluna.mp3,2020-06-13_19h14.39.169,TranslationElicitation_spa,3.2.4,Win32,60,5ee3de894809040c1c9a619a,,1,0,80,45,1,79
,,,,,,,,,,,,,,,,,,,,,,,,,,,,,,,,,,,n,2.898000002,LUN,FALSE,,,,,,,151,lluna,Catalan,Sounds/cat_lluna.mp3,2020-06-13_19h14.39.169,TranslationElicitation_spa,3.2.4,Win32,60,5ee3de894809040c1c9a619a,,1,0,80,45,1,79
,,,,,,,,,,,,,,,,,,,,,,,,,,,,,,,,,,,a,3.481999874,LUNA,FALSE,,,,,,,151,lluna,Catalan,Sounds/cat_lluna.mp3,2020-06-13_19h14.39.169,TranslationElicitation_spa,3.2.4,Win32,60,5ee3de894809040c1c9a619a,,1,0,80,45,1,79
,,,,,,,,,,,,,,,,,,,,,,,,,,,,,,,,,,,return,4.246999979,,FALSE,,,,,,,151,lluna,Catalan,Sounds/cat_lluna.mp3,2020-06-13_19h14.39.169,TranslationElicitation_spa,3.2.4,Win32,60,5ee3de894809040c1c9a619a,4.246999979,1,0,80,45,1,79
,,,,,,,,,,,,,,,,,,,,,,,,,,,,,,,,,,,,,,,,,,,,,151,lluna,Catalan,Sounds/cat_lluna.mp3,2020-06-13_19h14.39.169,TranslationElicitation_spa,3.2.4,Win32,60,5ee3de894809040c1c9a619a,,1,0,80,45,1,79
,,,,,,,,,,,,,,,,,,,,,,,,,,,,,,,,,,,p,4.40199995,P,FALSE,,,,,,,187,vaixell,Catalan,Sounds/cat_vaixell.mp3,2020-06-13_19h14.39.169,TranslationElicitation_spa,3.2.4,Win32,60,5ee3de894809040c1c9a619a,,1,0,80,77,1,79
,,,,,,,,,,,,,,,,,,,,,,,,,,,,,,,,,,,a,4.48300004,PA,FALSE,,,,,,,187,vaixell,Catalan,Sounds/cat_vaixell.mp3,2020-06-13_19h14.39.169,TranslationElicitation_spa,3.2.4,Win32,60,5ee3de894809040c1c9a619a,,1,0,80,77,1,79
,,,,,,,,,,,,,,,,,,,,,,,,,,,,,,,,,,,s,4.650000095,PAS,FALSE,,,,,,,187,vaixell,Catalan,Sounds/cat_vaixell.mp3,2020-06-13_19h14.39.169,TranslationElicitation_spa,3.2.4,Win32,60,5ee3de894809040c1c9a619a,,1,0,80,77,1,79
,,,,,,,,,,,,,,,,,,,,,,,,,,,,,,,,,,,t,4.817000151,PAST,FALSE,,,,,,,187,vaixell,Catalan,Sounds/cat_vaixell.mp3,2020-06-13_19h14.39.169,TranslationElicitation_spa,3.2.4,Win32,60,5ee3de894809040c1c9a619a,,1,0,80,77,1,79
,,,,,,,,,,,,,,,,,,,,,,,,,,,,,,,,,,,e,4.920000076,PASTE,FALSE,,,,,,,187,vaixell,Catalan,Sounds/cat_vaixell.mp3,2020-06-13_19h14.39.169,TranslationElicitation_spa,3.2.4,Win32,60,5ee3de894809040c1c9a619a,,1,0,80,77,1,79
,,,,,,,,,,,,,,,,,,,,,,,,,,,,,,,,,,,l,5.212000132,PASTEL,FALSE,,,,,,,187,vaixell,Catalan,Sounds/cat_vaixell.mp3,2020-06-13_19h14.39.169,TranslationElicitation_spa,3.2.4,Win32,60,5ee3de894809040c1c9a619a,,1,0,80,77,1,79
,,,,,,,,,,,,,,,,,,,,,,,,,,,,,,,,,,,return,5.532999992,,FALSE,,,,,,,187,vaixell,Catalan,Sounds/cat_vaixell.mp3,2020-06-13_19h14.39.169,TranslationElicitation_spa,3.2.4,Win32,60,5ee3de894809040c1c9a619a,5.532999992,1,0,80,77,1,79
,,,,,,,,,,,,,,,,,,,,,,,,,,,,,,,,,,,,,,,,,,,,,187,vaixell,Catalan,Sounds/cat_vaixell.mp3,2020-06-13_19h14.39.169,TranslationElicitation_spa,3.2.4,Win32,60,5ee3de894809040c1c9a619a,,1,0,80,77,1,79
,,,,,,,,,,,,,,,,,,,,,,,,,,,,,,,,,,,t,1.180999994,T,FALSE,,,,,,,182,tomaquet,Catalan,Sounds/cat_tomaquet.mp3,2020-06-13_19h14.39.169,TranslationElicitation_spa,3.2.4,Win32,60,5ee3de894809040c1c9a619a,,1,0,80,73,1,79
,,,,,,,,,,,,,,,,,,,,,,,,,,,,,,,,,,,o,1.301999807,TO,FALSE,,,,,,,182,tomaquet,Catalan,Sounds/cat_tomaquet.mp3,2020-06-13_19h14.39.169,TranslationElicitation_spa,3.2.4,Win32,60,5ee3de894809040c1c9a619a,,1,0,80,73,1,79
,,,,,,,,,,,,,,,,,,,,,,,,,,,,,,,,,,,m,1.566999912,TOM,FALSE,,,,,,,182,tomaquet,Catalan,Sounds/cat_tomaquet.mp3,2020-06-13_19h14.39.169,TranslationElicitation_spa,3.2.4,Win32,60,5ee3de894809040c1c9a619a,,1,0,80,73,1,79
,,,,,,,,,,,,,,,,,,,,,,,,,,,,,,,,,,,a,1.730999947,TOMA,FALSE,,,,,,,182,tomaquet,Catalan,Sounds/cat_tomaquet.mp3,2020-06-13_19h14.39.169,TranslationElicitation_spa,3.2.4,Win32,60,5ee3de894809040c1c9a619a,,1,0,80,73,1,79
,,,,,,,,,,,,,,,,,,,,,,,,,,,,,,,,,,,t,1.947999954,TOMAT,FALSE,,,,,,,182,tomaquet,Catalan,Sounds/cat_tomaquet.mp3,2020-06-13_19h14.39.169,TranslationElicitation_spa,3.2.4,Win32,60,5ee3de894809040c1c9a619a,,1,0,80,73,1,79
,,,,,,,,,,,,,,,,,,,,,,,,,,,,,,,,,,,e,2.114999771,TOMATE,FALSE,,,,,,,182,tomaquet,Catalan,Sounds/cat_tomaquet.mp3,2020-06-13_19h14.39.169,TranslationElicitation_spa,3.2.4,Win32,60,5ee3de894809040c1c9a619a,,1,0,80,73,1,79
,,,,,,,,,,,,,,,,,,,,,,,,,,,,,,,,,,,return,3.264999866,,FALSE,,,,,,,182,tomaquet,Catalan,Sounds/cat_tomaquet.mp3,2020-06-13_19h14.39.169,TranslationElicitation_spa,3.2.4,Win32,60,5ee3de894809040c1c9a619a,3.264999866,1,0,80,73,1,79
,,,,,,,,,,,,,,,,,,,,,,,,,,,,,,,,,,,,,,,,,,,,,182,tomaquet,Catalan,Sounds/cat_tomaquet.mp3,2020-06-13_19h14.39.169,TranslationElicitation_spa,3.2.4,Win32,60,5ee3de894809040c1c9a619a,,1,0,80,73,1,79
,,,,,,,,,,,,,,,,,,,,,,,,,,,,,,,,,,,i,2.036000013,I,FALSE,,,,,,,111,bibero,Catalan,Sounds/cat_bibero.mp3,2020-06-13_19h14.39.169,TranslationElicitation_spa,3.2.4,Win32,60,5ee3de894809040c1c9a619a,,1,0,80,6,1,79
,,,,,,,,,,,,,,,,,,,,,,,,,,,,,,,,,,,backspace,2.398999929,,TRUE,,,,,,,111,bibero,Catalan,Sounds/cat_bibero.mp3,2020-06-13_19h14.39.169,TranslationElicitation_spa,3.2.4,Win32,60,5ee3de894809040c1c9a619a,,1,0,80,6,1,79
,,,,,,,,,,,,,,,,,,,,,,,,,,,,,,,,,,,b,2.534999847,B,TRUE,,,,,,,111,bibero,Catalan,Sounds/cat_bibero.mp3,2020-06-13_19h14.39.169,TranslationElicitation_spa,3.2.4,Win32,60,5ee3de894809040c1c9a619a,,1,0,80,6,1,79
,,,,,,,,,,,,,,,,,,,,,,,,,,,,,,,,,,,i,2.735999823,BI,TRUE,,,,,,,111,bibero,Catalan,Sounds/cat_bibero.mp3,2020-06-13_19h14.39.169,TranslationElicitation_spa,3.2.4,Win32,60,5ee3de894809040c1c9a619a,,1,0,80,6,1,79
,,,,,,,,,,,,,,,,,,,,,,,,,,,,,,,,,,,b,3.218999863,BIB,TRUE,,,,,,,111,bibero,Catalan,Sounds/cat_bibero.mp3,2020-06-13_19h14.39.169,TranslationElicitation_spa,3.2.4,Win32,60,5ee3de894809040c1c9a619a,,1,0,80,6,1,79
,,,,,,,,,,,,,,,,,,,,,,,,,,,,,,,,,,,e,3.383999825,BIBE,TRUE,,,,,,,111,bibero,Catalan,Sounds/cat_bibero.mp3,2020-06-13_19h14.39.169,TranslationElicitation_spa,3.2.4,Win32,60,5ee3de894809040c1c9a619a,,1,0,80,6,1,79
,,,,,,,,,,,,,,,,,,,,,,,,,,,,,,,,,,,r,3.725999832,BIBER,TRUE,,,,,,,111,bibero,Catalan,Sounds/cat_bibero.mp3,2020-06-13_19h14.39.169,TranslationElicitation_spa,3.2.4,Win32,60,5ee3de894809040c1c9a619a,,1,0,80,6,1,79
,,,,,,,,,,,,,,,,,,,,,,,,,,,,,,,,,,,o,3.830999851,BIBERO,TRUE,,,,,,,111,bibero,Catalan,Sounds/cat_bibero.mp3,2020-06-13_19h14.39.169,TranslationElicitation_spa,3.2.4,Win32,60,5ee3de894809040c1c9a619a,,1,0,80,6,1,79
,,,,,,,,,,,,,,,,,,,,,,,,,,,,,,,,,,,n,4.041999817,BIBERON,TRUE,,,,,,,111,bibero,Catalan,Sounds/cat_bibero.mp3,2020-06-13_19h14.39.169,TranslationElicitation_spa,3.2.4,Win32,60,5ee3de894809040c1c9a619a,,1,0,80,6,1,79
,,,,,,,,,,,,,,,,,,,,,,,,,,,,,,,,,,,backspace,5.254999876,BIBER,TRUE,,,,,,,111,bibero,Catalan,Sounds/cat_bibero.mp3,2020-06-13_19h14.39.169,TranslationElicitation_spa,3.2.4,Win32,60,5ee3de894809040c1c9a619a,,1,0,80,6,1,79
,,,,,,,,,,,,,,,,,,,,,,,,,,,,,,,,,,,backspace,5.450999975,BIB,TRUE,,,,,,,111,bibero,Catalan,Sounds/cat_bibero.mp3,2020-06-13_19h14.39.169,TranslationElicitation_spa,3.2.4,Win32,60,5ee3de894809040c1c9a619a,,1,0,80,6,1,79
,,,,,,,,,,,,,,,,,,,,,,,,,,,,,,,,,,,e,6.125999928,BIBE,TRUE,,,,,,,111,bibero,Catalan,Sounds/cat_bibero.mp3,2020-06-13_19h14.39.169,TranslationElicitation_spa,3.2.4,Win32,60,5ee3de894809040c1c9a619a,,1,0,80,6,1,79
,,,,,,,,,,,,,,,,,,,,,,,,,,,,,,,,,,,r,6.393999815,BIBER,TRUE,,,,,,,111,bibero,Catalan,Sounds/cat_bibero.mp3,2020-06-13_19h14.39.169,TranslationElicitation_spa,3.2.4,Win32,60,5ee3de894809040c1c9a619a,,1,0,80,6,1,79
,,,,,,,,,,,,,,,,,,,,,,,,,,,,,,,,,,,apostrophe,6.611999989,BIBER,TRUE,,,,,,,111,bibero,Catalan,Sounds/cat_bibero.mp3,2020-06-13_19h14.39.169,TranslationElicitation_spa,3.2.4,Win32,60,5ee3de894809040c1c9a619a,,1,0,80,6,1,79
,,,,,,,,,,,,,,,,,,,,,,,,,,,,,,,,,,,o,6.792999983,BIBERÓ,TRUE,,,,,,,111,bibero,Catalan,Sounds/cat_bibero.mp3,2020-06-13_19h14.39.169,TranslationElicitation_spa,3.2.4,Win32,60,5ee3de894809040c1c9a619a,,1,0,80,6,1,79
,,,,,,,,,,,,,,,,,,,,,,,,,,,,,,,,,,,n,6.958999872,BIBERÓN,TRUE,,,,,,,111,bibero,Catalan,Sounds/cat_bibero.mp3,2020-06-13_19h14.39.169,TranslationElicitation_spa,3.2.4,Win32,60,5ee3de894809040c1c9a619a,,1,0,80,6,1,79
,,,,,,,,,,,,,,,,,,,,,,,,,,,,,,,,,,,return,7.303999901,,TRUE,,,,,,,111,bibero,Catalan,Sounds/cat_bibero.mp3,2020-06-13_19h14.39.169,TranslationElicitation_spa,3.2.4,Win32,60,5ee3de894809040c1c9a619a,7.302999973,1,0,80,6,1,79
,,,,,,,,,,,,,,,,,,,,,,,,,,,,,,,,,,,,,,,,,,,,,111,bibero,Catalan,Sounds/cat_bibero.mp3,2020-06-13_19h14.39.169,TranslationElicitation_spa,3.2.4,Win32,60,5ee3de894809040c1c9a619a,,1,0,80,6,1,79
,,,,,,,,,,,,,,,,,,,,,,,,,,,,,,,,,,,f,1.765000105,F,FALSE,,,,,,,134,flor,Catalan,Sounds/cat_flor.mp3,2020-06-13_19h14.39.169,TranslationElicitation_spa,3.2.4,Win32,60,5ee3de894809040c1c9a619a,,1,0,80,29,1,79
,,,,,,,,,,,,,,,,,,,,,,,,,,,,,,,,,,,l,1.891000032,FL,FALSE,,,,,,,134,flor,Catalan,Sounds/cat_flor.mp3,2020-06-13_19h14.39.169,TranslationElicitation_spa,3.2.4,Win32,60,5ee3de894809040c1c9a619a,,1,0,80,29,1,79
,,,,,,,,,,,,,,,,,,,,,,,,,,,,,,,,,,,o,2.073999882,FLO,FALSE,,,,,,,134,flor,Catalan,Sounds/cat_flor.mp3,2020-06-13_19h14.39.169,TranslationElicitation_spa,3.2.4,Win32,60,5ee3de894809040c1c9a619a,,1,0,80,29,1,79
,,,,,,,,,,,,,,,,,,,,,,,,,,,,,,,,,,,r,2.161999941,FLOR,FALSE,,,,,,,134,flor,Catalan,Sounds/cat_flor.mp3,2020-06-13_19h14.39.169,TranslationElicitation_spa,3.2.4,Win32,60,5ee3de894809040c1c9a619a,,1,0,80,29,1,79
,,,,,,,,,,,,,,,,,,,,,,,,,,,,,,,,,,,return,2.611999989,,FALSE,,,,,,,134,flor,Catalan,Sounds/cat_flor.mp3,2020-06-13_19h14.39.169,TranslationElicitation_spa,3.2.4,Win32,60,5ee3de894809040c1c9a619a,2.611999989,1,0,80,29,1,79
,,,,,,,,,,,,,,,,,,,,,,,,,,,,,,,,,,,,,,,,,,,,,134,flor,Catalan,Sounds/cat_flor.mp3,2020-06-13_19h14.39.169,TranslationElicitation_spa,3.2.4,Win32,60,5ee3de894809040c1c9a619a,,1,0,80,29,1,79
,,,,,,,,,,,,,,,,,,,,,,,,,,,,,,,,,,,a,1.351999998,A,FALSE,,,,,,,105,aigua,Catalan,Sounds/cat_aigua.mp3,2020-06-13_19h14.39.169,TranslationElicitation_spa,3.2.4,Win32,60,5ee3de894809040c1c9a619a,,1,0,80,1,1,79
,,,,,,,,,,,,,,,,,,,,,,,,,,,,,,,,,,,g,2.519999981,AG,FALSE,,,,,,,105,aigua,Catalan,Sounds/cat_aigua.mp3,2020-06-13_19h14.39.169,TranslationElicitation_spa,3.2.4,Win32,60,5ee3de894809040c1c9a619a,,1,0,80,1,1,79
,,,,,,,,,,,,,,,,,,,,,,,,,,,,,,,,,,,u,2.686000109,AGU,FALSE,,,,,,,105,aigua,Catalan,Sounds/cat_aigua.mp3,2020-06-13_19h14.39.169,TranslationElicitation_spa,3.2.4,Win32,60,5ee3de894809040c1c9a619a,,1,0,80,1,1,79
,,,,,,,,,,,,,,,,,,,,,,,,,,,,,,,,,,,a,2.815999985,AGUA,FALSE,,,,,,,105,aigua,Catalan,Sounds/cat_aigua.mp3,2020-06-13_19h14.39.169,TranslationElicitation_spa,3.2.4,Win32,60,5ee3de894809040c1c9a619a,,1,0,80,1,1,79
,,,,,,,,,,,,,,,,,,,,,,,,,,,,,,,,,,,return,3.782000065,,FALSE,,,,,,,105,aigua,Catalan,Sounds/cat_aigua.mp3,2020-06-13_19h14.39.169,TranslationElicitation_spa,3.2.4,Win32,60,5ee3de894809040c1c9a619a,3.782000065,1,0,80,1,1,79
,,,,,,,,,,,,,,,,,,,,,,,,,,,,,,,,,,,,,,,,,,,,,105,aigua,Catalan,Sounds/cat_aigua.mp3,2020-06-13_19h14.39.169,TranslationElicitation_spa,3.2.4,Win32,60,5ee3de894809040c1c9a619a,,1,0,80,1,1,79
,,,,,,,,,,,,,,,,,,,,,,,,,,,,,,,,,,,c,1.369999886,C,FALSE,,,,,,,121,camisa,Catalan,Sounds/cat_camisa.mp3,2020-06-13_19h14.39.169,TranslationElicitation_spa,3.2.4,Win32,60,5ee3de894809040c1c9a619a,,1,0,80,16,1,79
,,,,,,,,,,,,,,,,,,,,,,,,,,,,,,,,,,,a,1.467000008,CA,FALSE,,,,,,,121,camisa,Catalan,Sounds/cat_camisa.mp3,2020-06-13_19h14.39.169,TranslationElicitation_spa,3.2.4,Win32,60,5ee3de894809040c1c9a619a,,1,0,80,16,1,79
,,,,,,,,,,,,,,,,,,,,,,,,,,,,,,,,,,,m,1.66899991,CAM,FALSE,,,,,,,121,camisa,Catalan,Sounds/cat_camisa.mp3,2020-06-13_19h14.39.169,TranslationElicitation_spa,3.2.4,Win32,60,5ee3de894809040c1c9a619a,,1,0,80,16,1,79
,,,,,,,,,,,,,,,,,,,,,,,,,,,,,,,,,,,i,1.845999956,CAMI,FALSE,,,,,,,121,camisa,Catalan,Sounds/cat_camisa.mp3,2020-06-13_19h14.39.169,TranslationElicitation_spa,3.2.4,Win32,60,5ee3de894809040c1c9a619a,,1,0,80,16,1,79
,,,,,,,,,,,,,,,,,,,,,,,,,,,,,,,,,,,s,1.948999882,CAMIS,FALSE,,,,,,,121,camisa,Catalan,Sounds/cat_camisa.mp3,2020-06-13_19h14.39.169,TranslationElicitation_spa,3.2.4,Win32,60,5ee3de894809040c1c9a619a,,1,0,80,16,1,79
,,,,,,,,,,,,,,,,,,,,,,,,,,,,,,,,,,,a,2.032999992,CAMISA,FALSE,,,,,,,121,camisa,Catalan,Sounds/cat_camisa.mp3,2020-06-13_19h14.39.169,TranslationElicitation_spa,3.2.4,Win32,60,5ee3de894809040c1c9a619a,,1,0,80,16,1,79
,,,,,,,,,,,,,,,,,,,,,,,,,,,,,,,,,,,return,7.740999937,,FALSE,,,,,,,121,camisa,Catalan,Sounds/cat_camisa.mp3,2020-06-13_19h14.39.169,TranslationElicitation_spa,3.2.4,Win32,60,5ee3de894809040c1c9a619a,7.740999937,1,0,80,16,1,79
,,,,,,,,,,,,,,,,,,,,,,,,,,,,,,,,,,,,,,,,,,,,,121,camisa,Catalan,Sounds/cat_camisa.mp3,2020-06-13_19h14.39.169,TranslationElicitation_spa,3.2.4,Win32,60,5ee3de894809040c1c9a619a,,1,0,80,16,1,79
,,,,,,,,,,,,,,,,,,,,,,,,,,,,,,,,,,,g,2.54399991,G,FALSE,,,,,,,140,gat,Catalan,Sounds/cat_gat.mp3,2020-06-13_19h14.39.169,TranslationElicitation_spa,3.2.4,Win32,60,5ee3de894809040c1c9a619a,,1,0,80,35,1,79
,,,,,,,,,,,,,,,,,,,,,,,,,,,,,,,,,,,a,2.667999983,GA,FALSE,,,,,,,140,gat,Catalan,Sounds/cat_gat.mp3,2020-06-13_19h14.39.169,TranslationElicitation_spa,3.2.4,Win32,60,5ee3de894809040c1c9a619a,,1,0,80,35,1,79
,,,,,,,,,,,,,,,,,,,,,,,,,,,,,,,,,,,t,2.972999811,GAT,FALSE,,,,,,,140,gat,Catalan,Sounds/cat_gat.mp3,2020-06-13_19h14.39.169,TranslationElicitation_spa,3.2.4,Win32,60,5ee3de894809040c1c9a619a,,1,0,80,35,1,79
,,,,,,,,,,,,,,,,,,,,,,,,,,,,,,,,,,,o,2.990999937,GATO,FALSE,,,,,,,140,gat,Catalan,Sounds/cat_gat.mp3,2020-06-13_19h14.39.169,TranslationElicitation_spa,3.2.4,Win32,60,5ee3de894809040c1c9a619a,,1,0,80,35,1,79
,,,,,,,,,,,,,,,,,,,,,,,,,,,,,,,,,,,return,4.824999809,,FALSE,,,,,,,140,gat,Catalan,Sounds/cat_gat.mp3,2020-06-13_19h14.39.169,TranslationElicitation_spa,3.2.4,Win32,60,5ee3de894809040c1c9a619a,4.824999809,1,0,80,35,1,79
,,,,,,,,,,,,,,,,,,,,,,,,,,,,,,,,,,,,,,,,,,,,,140,gat,Catalan,Sounds/cat_gat.mp3,2020-06-13_19h14.39.169,TranslationElicitation_spa,3.2.4,Win32,60,5ee3de894809040c1c9a619a,,1,0,80,35,1,79
,,,,,,,,,,,,,,,,,,,,,,,,,,,,,,,,,,,m,3.246000051,M,FALSE,,,,,,,152,ma,Catalan,Sounds/cat_ma.mp3,2020-06-13_19h14.39.169,TranslationElicitation_spa,3.2.4,Win32,60,5ee3de894809040c1c9a619a,,1,0,80,46,1,79
,,,,,,,,,,,,,,,,,,,,,,,,,,,,,,,,,,,a,3.345999956,MA,FALSE,,,,,,,152,ma,Catalan,Sounds/cat_ma.mp3,2020-06-13_19h14.39.169,TranslationElicitation_spa,3.2.4,Win32,60,5ee3de894809040c1c9a619a,,1,0,80,46,1,79
,,,,,,,,,,,,,,,,,,,,,,,,,,,,,,,,,,,m,3.446000099,MAM,FALSE,,,,,,,152,ma,Catalan,Sounds/cat_ma.mp3,2020-06-13_19h14.39.169,TranslationElicitation_spa,3.2.4,Win32,60,5ee3de894809040c1c9a619a,,1,0,80,46,1,79
,,,,,,,,,,,,,,,,,,,,,,,,,,,,,,,,,,,apostrophe,3.63499999,MAM,FALSE,,,,,,,152,ma,Catalan,Sounds/cat_ma.mp3,2020-06-13_19h14.39.169,TranslationElicitation_spa,3.2.4,Win32,60,5ee3de894809040c1c9a619a,,1,0,80,46,1,79
,,,,,,,,,,,,,,,,,,,,,,,,,,,,,,,,,,,a,3.713999987,MAMÁ,FALSE,,,,,,,152,ma,Catalan,Sounds/cat_ma.mp3,2020-06-13_19h14.39.169,TranslationElicitation_spa,3.2.4,Win32,60,5ee3de894809040c1c9a619a,,1,0,80,46,1,79
,,,,,,,,,,,,,,,,,,,,,,,,,,,,,,,,,,,return,4.163000107,,FALSE,,,,,,,152,ma,Catalan,Sounds/cat_ma.mp3,2020-06-13_19h14.39.169,TranslationElicitation_spa,3.2.4,Win32,60,5ee3de894809040c1c9a619a,4.163000107,1,0,80,46,1,79
,,,,,,,,,,,,,,,,,,,,,,,,,,,,,,,,,,,,,,,,,,,,,152,ma,Catalan,Sounds/cat_ma.mp3,2020-06-13_19h14.39.169,TranslationElicitation_spa,3.2.4,Win32,60,5ee3de894809040c1c9a619a,,1,0,80,46,1,79
,,,,,,,,,,,,,,,,,,,,,,,,,,,,,,,,,,,b,5.082999945,B,FALSE,,,,,,,117,boto,Catalan,Sounds/cat_boto.mp3,2020-06-13_19h14.39.169,TranslationElicitation_spa,3.2.4,Win32,60,5ee3de894809040c1c9a619a,,1,0,80,12,1,79
,,,,,,,,,,,,,,,,,,,,,,,,,,,,,,,,,,,o,5.634000063,BO,FALSE,,,,,,,117,boto,Catalan,Sounds/cat_boto.mp3,2020-06-13_19h14.39.169,TranslationElicitation_spa,3.2.4,Win32,60,5ee3de894809040c1c9a619a,,1,0,80,12,1,79
,,,,,,,,,,,,,,,,,,,,,,,,,,,,,,,,,,,t,5.799000025,BOT,FALSE,,,,,,,117,boto,Catalan,Sounds/cat_boto.mp3,2020-06-13_19h14.39.169,TranslationElicitation_spa,3.2.4,Win32,60,5ee3de894809040c1c9a619a,,1,0,80,12,1,79
,,,,,,,,,,,,,,,,,,,,,,,,,,,,,,,,,,,apostrophe,5.915999889,BOT,FALSE,,,,,,,117,boto,Catalan,Sounds/cat_boto.mp3,2020-06-13_19h14.39.169,TranslationElicitation_spa,3.2.4,Win32,60,5ee3de894809040c1c9a619a,,1,0,80,12,1,79
,,,,,,,,,,,,,,,,,,,,,,,,,,,,,,,,,,,o,6.085000038,BOTÓ,FALSE,,,,,,,117,boto,Catalan,Sounds/cat_boto.mp3,2020-06-13_19h14.39.169,TranslationElicitation_spa,3.2.4,Win32,60,5ee3de894809040c1c9a619a,,1,0,80,12,1,79
,,,,,,,,,,,,,,,,,,,,,,,,,,,,,,,,,,,n,6.184000015,BOTÓN,FALSE,,,,,,,117,boto,Catalan,Sounds/cat_boto.mp3,2020-06-13_19h14.39.169,TranslationElicitation_spa,3.2.4,Win32,60,5ee3de894809040c1c9a619a,,1,0,80,12,1,79
,,,,,,,,,,,,,,,,,,,,,,,,,,,,,,,,,,,return,6.684000015,,FALSE,,,,,,,117,boto,Catalan,Sounds/cat_boto.mp3,2020-06-13_19h14.39.169,TranslationElicitation_spa,3.2.4,Win32,60,5ee3de894809040c1c9a619a,6.684000015,1,0,80,12,1,79
,,,,,,,,,,,,,,,,,,,,,,,,,,,,,,,,,,,,,,,,,,,,,117,boto,Catalan,Sounds/cat_boto.mp3,2020-06-13_19h14.39.169,TranslationElicitation_spa,3.2.4,Win32,60,5ee3de894809040c1c9a619a,,1,0,80,12,1,79
,,,,,,,,,,,,,,,,,,,,,,,,,,,,,,,,,,,p,1.650000095,P,FALSE,,,,,,,170,ploma,Catalan,Sounds/cat_ploma.mp3,2020-06-13_19h14.39.169,TranslationElicitation_spa,3.2.4,Win32,60,5ee3de894809040c1c9a619a,,1,0,80,62,1,79
,,,,,,,,,,,,,,,,,,,,,,,,,,,,,,,,,,,l,1.866000175,PL,FALSE,,,,,,,170,ploma,Catalan,Sounds/cat_ploma.mp3,2020-06-13_19h14.39.169,TranslationElicitation_spa,3.2.4,Win32,60,5ee3de894809040c1c9a619a,,1,0,80,62,1,79
,,,,,,,,,,,,,,,,,,,,,,,,,,,,,,,,,,,u,2.032999992,PLU,FALSE,,,,,,,170,ploma,Catalan,Sounds/cat_ploma.mp3,2020-06-13_19h14.39.169,TranslationElicitation_spa,3.2.4,Win32,60,5ee3de894809040c1c9a619a,,1,0,80,62,1,79
,,,,,,,,,,,,,,,,,,,,,,,,,,,,,,,,,,,m,2.248000145,PLUM,FALSE,,,,,,,170,ploma,Catalan,Sounds/cat_ploma.mp3,2020-06-13_19h14.39.169,TranslationElicitation_spa,3.2.4,Win32,60,5ee3de894809040c1c9a619a,,1,0,80,62,1,79
,,,,,,,,,,,,,,,,,,,,,,,,,,,,,,,,,,,a,2.332000017,PLUMA,FALSE,,,,,,,170,ploma,Catalan,Sounds/cat_ploma.mp3,2020-06-13_19h14.39.169,TranslationElicitation_spa,3.2.4,Win32,60,5ee3de894809040c1c9a619a,,1,0,80,62,1,79
,,,,,,,,,,,,,,,,,,,,,,,,,,,,,,,,,,,return,2.683000088,,FALSE,,,,,,,170,ploma,Catalan,Sounds/cat_ploma.mp3,2020-06-13_19h14.39.169,TranslationElicitation_spa,3.2.4,Win32,60,5ee3de894809040c1c9a619a,2.68200016,1,0,80,62,1,79
,,,,,,,,,,,,,,,,,,,,,,,,,,,,,,,,,,,,,,,,,,,,,170,ploma,Catalan,Sounds/cat_ploma.mp3,2020-06-13_19h14.39.169,TranslationElicitation_spa,3.2.4,Win32,60,5ee3de894809040c1c9a619a,,1,0,80,62,1,79
,,,,,,,,,,,,,,,,,,,,,,,,,,,,,,,,,,,p,1.766000032,P,FALSE,,,,,,,174,porta,Catalan,Sounds/cat_porta.mp3,2020-06-13_19h14.39.169,TranslationElicitation_spa,3.2.4,Win32,60,5ee3de894809040c1c9a619a,,1,0,80,66,1,79
,,,,,,,,,,,,,,,,,,,,,,,,,,,,,,,,,,,u,1.917999983,PU,FALSE,,,,,,,174,porta,Catalan,Sounds/cat_porta.mp3,2020-06-13_19h14.39.169,TranslationElicitation_spa,3.2.4,Win32,60,5ee3de894809040c1c9a619a,,1,0,80,66,1,79
,,,,,,,,,,,,,,,,,,,,,,,,,,,,,,,,,,,e,2.062999964,PUE,FALSE,,,,,,,174,porta,Catalan,Sounds/cat_porta.mp3,2020-06-13_19h14.39.169,TranslationElicitation_spa,3.2.4,Win32,60,5ee3de894809040c1c9a619a,,1,0,80,66,1,79
,,,,,,,,,,,,,,,,,,,,,,,,,,,,,,,,,,,r,2.215000153,PUER,FALSE,,,,,,,174,porta,Catalan,Sounds/cat_porta.mp3,2020-06-13_19h14.39.169,TranslationElicitation_spa,3.2.4,Win32,60,5ee3de894809040c1c9a619a,,1,0,80,66,1,79
,,,,,,,,,,,,,,,,,,,,,,,,,,,,,,,,,,,t,2.352999926,PUERT,FALSE,,,,,,,174,porta,Catalan,Sounds/cat_porta.mp3,2020-06-13_19h14.39.169,TranslationElicitation_spa,3.2.4,Win32,60,5ee3de894809040c1c9a619a,,1,0,80,66,1,79
,,,,,,,,,,,,,,,,,,,,,,,,,,,,,,,,,,,a,2.421000004,PUERTA,FALSE,,,,,,,174,porta,Catalan,Sounds/cat_porta.mp3,2020-06-13_19h14.39.169,TranslationElicitation_spa,3.2.4,Win32,60,5ee3de894809040c1c9a619a,,1,0,80,66,1,79
,,,,,,,,,,,,,,,,,,,,,,,,,,,,,,,,,,,return,2.719000101,,FALSE,,,,,,,174,porta,Catalan,Sounds/cat_porta.mp3,2020-06-13_19h14.39.169,TranslationElicitation_spa,3.2.4,Win32,60,5ee3de894809040c1c9a619a,2.719000101,1,0,80,66,1,79
,,,,,,,,,,,,,,,,,,,,,,,,,,,,,,,,,,,,,,,,,,,,,174,porta,Catalan,Sounds/cat_porta.mp3,2020-06-13_19h14.39.169,TranslationElicitation_spa,3.2.4,Win32,60,5ee3de894809040c1c9a619a,,1,0,80,66,1,79
,,,,,,,,,,,,,,,,,,,,,,,,,,,,,,,,,,,c,3.838000059,C,FALSE,,,,,,,173,porc,Catalan,Sounds/cat_porc.mp3,2020-06-13_19h14.39.169,TranslationElicitation_spa,3.2.4,Win32,60,5ee3de894809040c1c9a619a,,1,0,80,65,1,79
,,,,,,,,,,,,,,,,,,,,,,,,,,,,,,,,,,,e,3.986999989,CE,FALSE,,,,,,,173,porc,Catalan,Sounds/cat_porc.mp3,2020-06-13_19h14.39.169,TranslationElicitation_spa,3.2.4,Win32,60,5ee3de894809040c1c9a619a,,1,0,80,65,1,79
,,,,,,,,,,,,,,,,,,,,,,,,,,,,,,,,,,,r,4.088000059,CER,FALSE,,,,,,,173,porc,Catalan,Sounds/cat_porc.mp3,2020-06-13_19h14.39.169,TranslationElicitation_spa,3.2.4,Win32,60,5ee3de894809040c1c9a619a,,1,0,80,65,1,79
,,,,,,,,,,,,,,,,,,,,,,,,,,,,,,,,,,,d,4.269000053,CERD,FALSE,,,,,,,173,porc,Catalan,Sounds/cat_porc.mp3,2020-06-13_19h14.39.169,TranslationElicitation_spa,3.2.4,Win32,60,5ee3de894809040c1c9a619a,,1,0,80,65,1,79
,,,,,,,,,,,,,,,,,,,,,,,,,,,,,,,,,,,o,4.40500021,CERDO,FALSE,,,,,,,173,porc,Catalan,Sounds/cat_porc.mp3,2020-06-13_19h14.39.169,TranslationElicitation_spa,3.2.4,Win32,60,5ee3de894809040c1c9a619a,,1,0,80,65,1,79
,,,,,,,,,,,,,,,,,,,,,,,,,,,,,,,,,,,return,6.809000015,,FALSE,,,,,,,173,porc,Catalan,Sounds/cat_porc.mp3,2020-06-13_19h14.39.169,TranslationElicitation_spa,3.2.4,Win32,60,5ee3de894809040c1c9a619a,6.809000015,1,0,80,65,1,79
,,,,,,,,,,,,,,,,,,,,,,,,,,,,,,,,,,,,,,,,,,,,,173,porc,Catalan,Sounds/cat_porc.mp3,2020-06-13_19h14.39.169,TranslationElicitation_spa,3.2.4,Win32,60,5ee3de894809040c1c9a619a,,1,0,80,65,1,79
,,,,,,,,,,,,,,,,,,,,,,,,,,,,,,,,,,,j,1.116999865,J,FALSE,,,,,,,127,cotxe,Catalan,Sounds/cat_cotxe.mp3,2020-06-13_19h14.39.169,TranslationElicitation_spa,3.2.4,Win32,60,5ee3de894809040c1c9a619a,,1,0,80,22,1,79
,,,,,,,,,,,,,,,,,,,,,,,,,,,,,,,,,,,backspace,1.717000008,,TRUE,,,,,,,127,cotxe,Catalan,Sounds/cat_cotxe.mp3,2020-06-13_19h14.39.169,TranslationElicitation_spa,3.2.4,Win32,60,5ee3de894809040c1c9a619a,,1,0,80,22,1,79
,,,,,,,,,,,,,,,,,,,,,,,,,,,,,,,,,,,c,1.86500001,C,TRUE,,,,,,,127,cotxe,Catalan,Sounds/cat_cotxe.mp3,2020-06-13_19h14.39.169,TranslationElicitation_spa,3.2.4,Win32,60,5ee3de894809040c1c9a619a,,1,0,80,22,1,79
,,,,,,,,,,,,,,,,,,,,,,,,,,,,,,,,,,,o,2.017999887,CO,TRUE,,,,,,,127,cotxe,Catalan,Sounds/cat_cotxe.mp3,2020-06-13_19h14.39.169,TranslationElicitation_spa,3.2.4,Win32,60,5ee3de894809040c1c9a619a,,1,0,80,22,1,79
,,,,,,,,,,,,,,,,,,,,,,,,,,,,,,,,,,,c,2.19299984,COC,TRUE,,,,,,,127,cotxe,Catalan,Sounds/cat_cotxe.mp3,2020-06-13_19h14.39.169,TranslationElicitation_spa,3.2.4,Win32,60,5ee3de894809040c1c9a619a,,1,0,80,22,1,79
,,,,,,,,,,,,,,,,,,,,,,,,,,,,,,,,,,,h,2.268999815,COCH,TRUE,,,,,,,127,cotxe,Catalan,Sounds/cat_cotxe.mp3,2020-06-13_19h14.39.169,TranslationElicitation_spa,3.2.4,Win32,60,5ee3de894809040c1c9a619a,,1,0,80,22,1,79
,,,,,,,,,,,,,,,,,,,,,,,,,,,,,,,,,,,e,2.424999952,COCHE,TRUE,,,,,,,127,cotxe,Catalan,Sounds/cat_cotxe.mp3,2020-06-13_19h14.39.169,TranslationElicitation_spa,3.2.4,Win32,60,5ee3de894809040c1c9a619a,,1,0,80,22,1,79
,,,,,,,,,,,,,,,,,,,,,,,,,,,,,,,,,,,return,2.764999866,,TRUE,,,,,,,127,cotxe,Catalan,Sounds/cat_cotxe.mp3,2020-06-13_19h14.39.169,TranslationElicitation_spa,3.2.4,Win32,60,5ee3de894809040c1c9a619a,2.764999866,1,0,80,22,1,79
,,,,,,,,,,,,,,,,,,,,,,,,,,,,,,,,,,,,,,,,,,,,,127,cotxe,Catalan,Sounds/cat_cotxe.mp3,2020-06-13_19h14.39.169,TranslationElicitation_spa,3.2.4,Win32,60,5ee3de894809040c1c9a619a,,1,0,80,22,1,79
,,,,,,,,,,,,,,,,,,,,,,,,,,,,,,,,,,,a,3.618000031,A,FALSE,,,,,,,108,ampolla,Catalan,Sounds/cat_ampolla.mp3,2020-06-13_19h14.39.169,TranslationElicitation_spa,3.2.4,Win32,60,5ee3de894809040c1c9a619a,,1,0,80,4,1,79
,,,,,,,,,,,,,,,,,,,,,,,,,,,,,,,,,,,m,4.131999969,AM,FALSE,,,,,,,108,ampolla,Catalan,Sounds/cat_ampolla.mp3,2020-06-13_19h14.39.169,TranslationElicitation_spa,3.2.4,Win32,60,5ee3de894809040c1c9a619a,,1,0,80,4,1,79
,,,,,,,,,,,,,,,,,,,,,,,,,,,,,,,,,,,p,4.359999895,AMP,FALSE,,,,,,,108,ampolla,Catalan,Sounds/cat_ampolla.mp3,2020-06-13_19h14.39.169,TranslationElicitation_spa,3.2.4,Win32,60,5ee3de894809040c1c9a619a,,1,0,80,4,1,79
,,,,,,,,,,,,,,,,,,,,,,,,,,,,,,,,,,,o,4.523999929,AMPO,FALSE,,,,,,,108,ampolla,Catalan,Sounds/cat_ampolla.mp3,2020-06-13_19h14.39.169,TranslationElicitation_spa,3.2.4,Win32,60,5ee3de894809040c1c9a619a,,1,0,80,4,1,79
,,,,,,,,,,,,,,,,,,,,,,,,,,,,,,,,,,,l,4.974999905,AMPOL,FALSE,,,,,,,108,ampolla,Catalan,Sounds/cat_ampolla.mp3,2020-06-13_19h14.39.169,TranslationElicitation_spa,3.2.4,Win32,60,5ee3de894809040c1c9a619a,,1,0,80,4,1,79
,,,,,,,,,,,,,,,,,,,,,,,,,,,,,,,,,,,l,5.148999929,AMPOLL,FALSE,,,,,,,108,ampolla,Catalan,Sounds/cat_ampolla.mp3,2020-06-13_19h14.39.169,TranslationElicitation_spa,3.2.4,Win32,60,5ee3de894809040c1c9a619a,,1,0,80,4,1,79
,,,,,,,,,,,,,,,,,,,,,,,,,,,,,,,,,,,a,5.250999928,AMPOLLA,FALSE,,,,,,,108,ampolla,Catalan,Sounds/cat_ampolla.mp3,2020-06-13_19h14.39.169,TranslationElicitation_spa,3.2.4,Win32,60,5ee3de894809040c1c9a619a,,1,0,80,4,1,79
,,,,,,,,,,,,,,,,,,,,,,,,,,,,,,,,,,,return,12.6099999,,FALSE,,,,,,,108,ampolla,Catalan,Sounds/cat_ampolla.mp3,2020-06-13_19h14.39.169,TranslationElicitation_spa,3.2.4,Win32,60,5ee3de894809040c1c9a619a,12.6099999,1,0,80,4,1,79
,,,,,,,,,,,,,,,,,,,,,,,,,,,,,,,,,,,,,,,,,,,,,108,ampolla,Catalan,Sounds/cat_ampolla.mp3,2020-06-13_19h14.39.169,TranslationElicitation_spa,3.2.4,Win32,60,5ee3de894809040c1c9a619a,,1,0,80,4,1,79
,,,,,,,,,,,,,,,,,,,,,,,,,,,,,,,,,,,return,14.69300008,,FALSE,,,,,,,176,samarreta,Catalan,Sounds/cat_samarreta.mp3,2020-06-13_19h14.39.169,TranslationElicitation_spa,3.2.4,Win32,60,5ee3de894809040c1c9a619a,14.69300008,1,0,80,68,1,79
,,,,,,,,,,,,,,,,,,,,,,,,,,,,,,,,,,,,,,,,,,,,,176,samarreta,Catalan,Sounds/cat_samarreta.mp3,2020-06-13_19h14.39.169,TranslationElicitation_spa,3.2.4,Win32,60,5ee3de894809040c1c9a619a,,1,0,80,68,1,79
,,,,,,,,,,,,,,,,,,,,,,,,,,,,,,,,,,,n,7.21600008,N,FALSE,,,,,,,158,nas,Catalan,Sounds/cat_nas.mp3,2020-06-13_19h14.39.169,TranslationElicitation_spa,3.2.4,Win32,60,5ee3de894809040c1c9a619a,,1,0,80,52,1,79
,,,,,,,,,,,,,,,,,,,,,,,,,,,,,,,,,,,a,7.298000097,NA,FALSE,,,,,,,158,nas,Catalan,Sounds/cat_nas.mp3,2020-06-13_19h14.39.169,TranslationElicitation_spa,3.2.4,Win32,60,5ee3de894809040c1c9a619a,,1,0,80,52,1,79
,,,,,,,,,,,,,,,,,,,,,,,,,,,,,,,,,,,d,7.430999994,NAD,FALSE,,,,,,,158,nas,Catalan,Sounds/cat_nas.mp3,2020-06-13_19h14.39.169,TranslationElicitation_spa,3.2.4,Win32,60,5ee3de894809040c1c9a619a,,1,0,80,52,1,79
,,,,,,,,,,,,,,,,,,,,,,,,,,,,,,,,,,,a,7.512000084,NADA,FALSE,,,,,,,158,nas,Catalan,Sounds/cat_nas.mp3,2020-06-13_19h14.39.169,TranslationElicitation_spa,3.2.4,Win32,60,5ee3de894809040c1c9a619a,,1,0,80,52,1,79
,,,,,,,,,,,,,,,,,,,,,,,,,,,,,,,,,,,return,7.906000137,,FALSE,,,,,,,158,nas,Catalan,Sounds/cat_nas.mp3,2020-06-13_19h14.39.169,TranslationElicitation_spa,3.2.4,Win32,60,5ee3de894809040c1c9a619a,7.906000137,1,0,80,52,1,79
,,,,,,,,,,,,,,,,,,,,,,,,,,,,,,,,,,,,,,,,,,,,,158,nas,Catalan,Sounds/cat_nas.mp3,2020-06-13_19h14.39.169,TranslationElicitation_spa,3.2.4,Win32,60,5ee3de894809040c1c9a619a,,1,0,80,52,1,79
,,,,,,,,,,,,,,,,,,,,,,,,,,,,,,,,,,,l,4.669000149,L,FALSE,,,,,,,149,llibre,Catalan,Sounds/cat_llibre.mp3,2020-06-13_19h14.39.169,TranslationElicitation_spa,3.2.4,Win32,60,5ee3de894809040c1c9a619a,,1,0,80,43,1,79
