consentKey.keys,consentKey.rt,languageL1Key.keys,languageL1Key.rt,languageL2,languageL2OralKey.keys,languageL2OralKey.rt,languageL2WrittenKey.keys,languageL2WrittenKey.rt,languageL3OralKey.keys,languageL3OralKey.rt,languageL3WrittenKey.keys,languageL3WrittenKey.rt,languageCatalanOralKey.keys,languageCatalanOralKey.rt,languageCatalanWrittenKey.keys,languageCatalanWrittenKey.rt,languageCatalanTimeKey.keys,languageCatalanTimeKey.rt,age,demoSexKey.keys,demoSexKey.rt,demoEducationKey.keys,demoEducationKey.rt,city,demoVisionKey.keys,demoVisionKey.rt,demoLanguageKey.keys,demoLanguageKey.rt,setupLocationKey.keys,setupLocationKey.rt,setupNoiseKey.keys,setupNoiseKey.rt,instructionsKeys.keys,instructionsKeys.rt,keyPressed,keyPressTime,inputText,error,trials_practice.thisRepN,trials_practice.thisTrialN,trials_practice.thisN,trials_practice.thisIndex,trials_practice.ran,trials_practice.order,trial_id,word,test_language,soundfile,date,expName,psychopyVersion,OS,frameRate,participant,trialOffset,trials.thisRepN,trials.thisTrialN,trials.thisN,trials.thisIndex,trials.ran,trials.order
space,2.177999735,e,6.157999754,ITALINO,3,10.43899989,4,7.638000011,2,4.19299984,1,3.770999908,1,3.728999853,1,1.950999975,3,10.8499999,24,m,1.927999973,4,5.877999783,MURCIA,n,4.585999966,n,2.460999966,1,3.18599987,1,3.679000139,space,21.37599993,p,4.311000109,P,FALSE,1,0,5,3,1,4,167,pingui,Catalan,Sounds/cat_pingui.mp3,2020-06-16_12h01.52.352,TranslationElicitation_spa,3.2.4,Win32,60,5ee3ddcd3f9ded0c586a8edf,,,,,,,
,,,,,,,,,,,,,,,,,,,,,,,,,,,,,,,,,,,i,5.127000093,PI,FALSE,1,0,5,3,1,4,167,pingui,Catalan,Sounds/cat_pingui.mp3,2020-06-16_12h01.52.352,TranslationElicitation_spa,3.2.4,Win32,60,5ee3ddcd3f9ded0c586a8edf,,,,,,,
,,,,,,,,,,,,,,,,,,,,,,,,,,,,,,,,,,,n,5.377000093,PIN,FALSE,1,0,5,3,1,4,167,pingui,Catalan,Sounds/cat_pingui.mp3,2020-06-16_12h01.52.352,TranslationElicitation_spa,3.2.4,Win32,60,5ee3ddcd3f9ded0c586a8edf,,,,,,,
,,,,,,,,,,,,,,,,,,,,,,,,,,,,,,,,,,,g,5.644000053,PING,FALSE,1,0,5,3,1,4,167,pingui,Catalan,Sounds/cat_pingui.mp3,2020-06-16_12h01.52.352,TranslationElicitation_spa,3.2.4,Win32,60,5ee3ddcd3f9ded0c586a8edf,,,,,,,
,,,,,,,,,,,,,,,,,,,,,,,,,,,,,,,,,,,u,5.960000038,PINGU,FALSE,1,0,5,3,1,4,167,pingui,Catalan,Sounds/cat_pingui.mp3,2020-06-16_12h01.52.352,TranslationElicitation_spa,3.2.4,Win32,60,5ee3ddcd3f9ded0c586a8edf,,,,,,,
,,,,,,,,,,,,,,,,,,,,,,,,,,,,,,,,,,,backspace,7.061000109,PIN,TRUE,1,0,5,3,1,4,167,pingui,Catalan,Sounds/cat_pingui.mp3,2020-06-16_12h01.52.352,TranslationElicitation_spa,3.2.4,Win32,60,5ee3ddcd3f9ded0c586a8edf,,,,,,,
,,,,,,,,,,,,,,,,,,,,,,,,,,,,,,,,,,,apostrophe,8.427999973,PIN,TRUE,1,0,5,3,1,4,167,pingui,Catalan,Sounds/cat_pingui.mp3,2020-06-16_12h01.52.352,TranslationElicitation_spa,3.2.4,Win32,60,5ee3ddcd3f9ded0c586a8edf,,,,,,,
,,,,,,,,,,,,,,,,,,,,,,,,,,,,,,,,,,,u,8.861000061,PINÚ,TRUE,1,0,5,3,1,4,167,pingui,Catalan,Sounds/cat_pingui.mp3,2020-06-16_12h01.52.352,TranslationElicitation_spa,3.2.4,Win32,60,5ee3ddcd3f9ded0c586a8edf,,,,,,,
,,,,,,,,,,,,,,,,,,,,,,,,,,,,,,,,,,,backspace,10.227,PI,TRUE,1,0,5,3,1,4,167,pingui,Catalan,Sounds/cat_pingui.mp3,2020-06-16_12h01.52.352,TranslationElicitation_spa,3.2.4,Win32,60,5ee3ddcd3f9ded0c586a8edf,,,,,,,
,,,,,,,,,,,,,,,,,,,,,,,,,,,,,,,,,,,g,10.5769999,PIG,TRUE,1,0,5,3,1,4,167,pingui,Catalan,Sounds/cat_pingui.mp3,2020-06-16_12h01.52.352,TranslationElicitation_spa,3.2.4,Win32,60,5ee3ddcd3f9ded0c586a8edf,,,,,,,
,,,,,,,,,,,,,,,,,,,,,,,,,,,,,,,,,,,apostrophe,11.977,PIG,TRUE,1,0,5,3,1,4,167,pingui,Catalan,Sounds/cat_pingui.mp3,2020-06-16_12h01.52.352,TranslationElicitation_spa,3.2.4,Win32,60,5ee3ddcd3f9ded0c586a8edf,,,,,,,
,,,,,,,,,,,,,,,,,,,,,,,,,,,,,,,,,,,u,12.96000004,PIGÚ,TRUE,1,0,5,3,1,4,167,pingui,Catalan,Sounds/cat_pingui.mp3,2020-06-16_12h01.52.352,TranslationElicitation_spa,3.2.4,Win32,60,5ee3ddcd3f9ded0c586a8edf,,,,,,,
,,,,,,,,,,,,,,,,,,,,,,,,,,,,,,,,,,,backspace,13.91000009,PI,TRUE,1,0,5,3,1,4,167,pingui,Catalan,Sounds/cat_pingui.mp3,2020-06-16_12h01.52.352,TranslationElicitation_spa,3.2.4,Win32,60,5ee3ddcd3f9ded0c586a8edf,,,,,,,
,,,,,,,,,,,,,,,,,,,,,,,,,,,,,,,,,,,apostrophe,16.72799993,PI,TRUE,1,0,5,3,1,4,167,pingui,Catalan,Sounds/cat_pingui.mp3,2020-06-16_12h01.52.352,TranslationElicitation_spa,3.2.4,Win32,60,5ee3ddcd3f9ded0c586a8edf,,,,,,,
,,,,,,,,,,,,,,,,,,,,,,,,,,,,,,,,,,,u,17.22600007,PIÚ,TRUE,1,0,5,3,1,4,167,pingui,Catalan,Sounds/cat_pingui.mp3,2020-06-16_12h01.52.352,TranslationElicitation_spa,3.2.4,Win32,60,5ee3ddcd3f9ded0c586a8edf,,,,,,,
,,,,,,,,,,,,,,,,,,,,,,,,,,,,,,,,,,,backspace,17.97600007,P,TRUE,1,0,5,3,1,4,167,pingui,Catalan,Sounds/cat_pingui.mp3,2020-06-16_12h01.52.352,TranslationElicitation_spa,3.2.4,Win32,60,5ee3ddcd3f9ded0c586a8edf,,,,,,,
,,,,,,,,,,,,,,,,,,,,,,,,,,,,,,,,,,,i,18.80999994,PI,TRUE,1,0,5,3,1,4,167,pingui,Catalan,Sounds/cat_pingui.mp3,2020-06-16_12h01.52.352,TranslationElicitation_spa,3.2.4,Win32,60,5ee3ddcd3f9ded0c586a8edf,,,,,,,
,,,,,,,,,,,,,,,,,,,,,,,,,,,,,,,,,,,g,19.64300013,PIG,TRUE,1,0,5,3,1,4,167,pingui,Catalan,Sounds/cat_pingui.mp3,2020-06-16_12h01.52.352,TranslationElicitation_spa,3.2.4,Win32,60,5ee3ddcd3f9ded0c586a8edf,,,,,,,
,,,,,,,,,,,,,,,,,,,,,,,,,,,,,,,,,,,u,19.82800007,PIGU,TRUE,1,0,5,3,1,4,167,pingui,Catalan,Sounds/cat_pingui.mp3,2020-06-16_12h01.52.352,TranslationElicitation_spa,3.2.4,Win32,60,5ee3ddcd3f9ded0c586a8edf,,,,,,,
,,,,,,,,,,,,,,,,,,,,,,,,,,,,,,,,,,,i,20.1099999,PIGUI,TRUE,1,0,5,3,1,4,167,pingui,Catalan,Sounds/cat_pingui.mp3,2020-06-16_12h01.52.352,TranslationElicitation_spa,3.2.4,Win32,60,5ee3ddcd3f9ded0c586a8edf,,,,,,,
,,,,,,,,,,,,,,,,,,,,,,,,,,,,,,,,,,,n,20.80999994,PIGUIN,TRUE,1,0,5,3,1,4,167,pingui,Catalan,Sounds/cat_pingui.mp3,2020-06-16_12h01.52.352,TranslationElicitation_spa,3.2.4,Win32,60,5ee3ddcd3f9ded0c586a8edf,,,,,,,
,,,,,,,,,,,,,,,,,,,,,,,,,,,,,,,,,,,o,20.94499993,PIGUINO,TRUE,1,0,5,3,1,4,167,pingui,Catalan,Sounds/cat_pingui.mp3,2020-06-16_12h01.52.352,TranslationElicitation_spa,3.2.4,Win32,60,5ee3ddcd3f9ded0c586a8edf,,,,,,,
,,,,,,,,,,,,,,,,,,,,,,,,,,,,,,,,,,,backspace,23.49300003,PIGUI,TRUE,1,0,5,3,1,4,167,pingui,Catalan,Sounds/cat_pingui.mp3,2020-06-16_12h01.52.352,TranslationElicitation_spa,3.2.4,Win32,60,5ee3ddcd3f9ded0c586a8edf,,,,,,,
,,,,,,,,,,,,,,,,,,,,,,,,,,,,,,,,,,,backspace,23.69300008,PIG,TRUE,1,0,5,3,1,4,167,pingui,Catalan,Sounds/cat_pingui.mp3,2020-06-16_12h01.52.352,TranslationElicitation_spa,3.2.4,Win32,60,5ee3ddcd3f9ded0c586a8edf,,,,,,,
,,,,,,,,,,,,,,,,,,,,,,,,,,,,,,,,,,,backspace,23.85899997,P,TRUE,1,0,5,3,1,4,167,pingui,Catalan,Sounds/cat_pingui.mp3,2020-06-16_12h01.52.352,TranslationElicitation_spa,3.2.4,Win32,60,5ee3ddcd3f9ded0c586a8edf,,,,,,,
,,,,,,,,,,,,,,,,,,,,,,,,,,,,,,,,,,,backspace,24.05900002,,TRUE,1,0,5,3,1,4,167,pingui,Catalan,Sounds/cat_pingui.mp3,2020-06-16_12h01.52.352,TranslationElicitation_spa,3.2.4,Win32,60,5ee3ddcd3f9ded0c586a8edf,,,,,,,
,,,,,,,,,,,,,,,,,,,,,,,,,,,,,,,,,,,p,24.84299994,P,TRUE,1,0,5,3,1,4,167,pingui,Catalan,Sounds/cat_pingui.mp3,2020-06-16_12h01.52.352,TranslationElicitation_spa,3.2.4,Win32,60,5ee3ddcd3f9ded0c586a8edf,,,,,,,
,,,,,,,,,,,,,,,,,,,,,,,,,,,,,,,,,,,i,25.09200001,PI,TRUE,1,0,5,3,1,4,167,pingui,Catalan,Sounds/cat_pingui.mp3,2020-06-16_12h01.52.352,TranslationElicitation_spa,3.2.4,Win32,60,5ee3ddcd3f9ded0c586a8edf,,,,,,,
,,,,,,,,,,,,,,,,,,,,,,,,,,,,,,,,,,,n,25.44199991,PIN,TRUE,1,0,5,3,1,4,167,pingui,Catalan,Sounds/cat_pingui.mp3,2020-06-16_12h01.52.352,TranslationElicitation_spa,3.2.4,Win32,60,5ee3ddcd3f9ded0c586a8edf,,,,,,,
,,,,,,,,,,,,,,,,,,,,,,,,,,,,,,,,,,,g,25.62700009,PING,TRUE,1,0,5,3,1,4,167,pingui,Catalan,Sounds/cat_pingui.mp3,2020-06-16_12h01.52.352,TranslationElicitation_spa,3.2.4,Win32,60,5ee3ddcd3f9ded0c586a8edf,,,,,,,
,,,,,,,,,,,,,,,,,,,,,,,,,,,,,,,,,,,u,26.47799993,PINGU,TRUE,1,0,5,3,1,4,167,pingui,Catalan,Sounds/cat_pingui.mp3,2020-06-16_12h01.52.352,TranslationElicitation_spa,3.2.4,Win32,60,5ee3ddcd3f9ded0c586a8edf,,,,,,,
,,,,,,,,,,,,,,,,,,,,,,,,,,,,,,,,,,,i,27.70900011,PINGUI,TRUE,1,0,5,3,1,4,167,pingui,Catalan,Sounds/cat_pingui.mp3,2020-06-16_12h01.52.352,TranslationElicitation_spa,3.2.4,Win32,60,5ee3ddcd3f9ded0c586a8edf,,,,,,,
,,,,,,,,,,,,,,,,,,,,,,,,,,,,,,,,,,,n,28.32599998,PINGUIN,TRUE,1,0,5,3,1,4,167,pingui,Catalan,Sounds/cat_pingui.mp3,2020-06-16_12h01.52.352,TranslationElicitation_spa,3.2.4,Win32,60,5ee3ddcd3f9ded0c586a8edf,,,,,,,
,,,,,,,,,,,,,,,,,,,,,,,,,,,,,,,,,,,o,28.47600007,PINGUINO,TRUE,1,0,5,3,1,4,167,pingui,Catalan,Sounds/cat_pingui.mp3,2020-06-16_12h01.52.352,TranslationElicitation_spa,3.2.4,Win32,60,5ee3ddcd3f9ded0c586a8edf,,,,,,,
,,,,,,,,,,,,,,,,,,,,,,,,,,,,,,,,,,,return,29.14199996,,TRUE,1,0,5,3,1,4,167,pingui,Catalan,Sounds/cat_pingui.mp3,2020-06-16_12h01.52.352,TranslationElicitation_spa,3.2.4,Win32,60,5ee3ddcd3f9ded0c586a8edf,29.14199996,,,,,,
,,,,,,,,,,,,,,,,,,,,,,,,,,,,,,,,,,,,,,,1,0,5,3,1,4,167,pingui,Catalan,Sounds/cat_pingui.mp3,2020-06-16_12h01.52.352,TranslationElicitation_spa,3.2.4,Win32,60,5ee3ddcd3f9ded0c586a8edf,,,,,,,
,,,,,,,,,,,,,,,,,,,,,,,,,,,,,,,,,,,a,3.726999998,A,FALSE,1,0,5,0,1,4,109,arbre,Catalan,Sounds/cat_arbre.mp3,2020-06-16_12h01.52.352,TranslationElicitation_spa,3.2.4,Win32,60,5ee3ddcd3f9ded0c586a8edf,,,,,,,
,,,,,,,,,,,,,,,,,,,,,,,,,,,,,,,,,,,r,3.961999893,AR,FALSE,1,0,5,0,1,4,109,arbre,Catalan,Sounds/cat_arbre.mp3,2020-06-16_12h01.52.352,TranslationElicitation_spa,3.2.4,Win32,60,5ee3ddcd3f9ded0c586a8edf,,,,,,,
,,,,,,,,,,,,,,,,,,,,,,,,,,,,,,,,,,,b,4.229000092,ARB,FALSE,1,0,5,0,1,4,109,arbre,Catalan,Sounds/cat_arbre.mp3,2020-06-16_12h01.52.352,TranslationElicitation_spa,3.2.4,Win32,60,5ee3ddcd3f9ded0c586a8edf,,,,,,,
,,,,,,,,,,,,,,,,,,,,,,,,,,,,,,,,,,,o,4.578000069,ARBO,FALSE,1,0,5,0,1,4,109,arbre,Catalan,Sounds/cat_arbre.mp3,2020-06-16_12h01.52.352,TranslationElicitation_spa,3.2.4,Win32,60,5ee3ddcd3f9ded0c586a8edf,,,,,,,
,,,,,,,,,,,,,,,,,,,,,,,,,,,,,,,,,,,l,4.828000069,ARBOL,FALSE,1,0,5,0,1,4,109,arbre,Catalan,Sounds/cat_arbre.mp3,2020-06-16_12h01.52.352,TranslationElicitation_spa,3.2.4,Win32,60,5ee3ddcd3f9ded0c586a8edf,,,,,,,
,,,,,,,,,,,,,,,,,,,,,,,,,,,,,,,,,,,return,5.52699995,,FALSE,1,0,5,0,1,4,109,arbre,Catalan,Sounds/cat_arbre.mp3,2020-06-16_12h01.52.352,TranslationElicitation_spa,3.2.4,Win32,60,5ee3ddcd3f9ded0c586a8edf,5.52699995,,,,,,
,,,,,,,,,,,,,,,,,,,,,,,,,,,,,,,,,,,,,,,1,0,5,0,1,4,109,arbre,Catalan,Sounds/cat_arbre.mp3,2020-06-16_12h01.52.352,TranslationElicitation_spa,3.2.4,Win32,60,5ee3ddcd3f9ded0c586a8edf,,,,,,,
,,,,,,,,,,,,,,,,,,,,,,,,,,,,,,,,,,,c,1.631000042,C,FALSE,1,0,5,1,1,4,147,jaqueta,Catalan,Sounds/cat_jaqueta.mp3,2020-06-16_12h01.52.352,TranslationElicitation_spa,3.2.4,Win32,60,5ee3ddcd3f9ded0c586a8edf,,,,,,,
,,,,,,,,,,,,,,,,,,,,,,,,,,,,,,,,,,,h,1.84800005,CH,FALSE,1,0,5,1,1,4,147,jaqueta,Catalan,Sounds/cat_jaqueta.mp3,2020-06-16_12h01.52.352,TranslationElicitation_spa,3.2.4,Win32,60,5ee3ddcd3f9ded0c586a8edf,,,,,,,
,,,,,,,,,,,,,,,,,,,,,,,,,,,,,,,,,,,a,2.030999899,CHA,FALSE,1,0,5,1,1,4,147,jaqueta,Catalan,Sounds/cat_jaqueta.mp3,2020-06-16_12h01.52.352,TranslationElicitation_spa,3.2.4,Win32,60,5ee3ddcd3f9ded0c586a8edf,,,,,,,
,,,,,,,,,,,,,,,,,,,,,,,,,,,,,,,,,,,q,2.247999907,CHAQ,FALSE,1,0,5,1,1,4,147,jaqueta,Catalan,Sounds/cat_jaqueta.mp3,2020-06-16_12h01.52.352,TranslationElicitation_spa,3.2.4,Win32,60,5ee3ddcd3f9ded0c586a8edf,,,,,,,
,,,,,,,,,,,,,,,,,,,,,,,,,,,,,,,,,,,u,2.363999844,CHAQU,FALSE,1,0,5,1,1,4,147,jaqueta,Catalan,Sounds/cat_jaqueta.mp3,2020-06-16_12h01.52.352,TranslationElicitation_spa,3.2.4,Win32,60,5ee3ddcd3f9ded0c586a8edf,,,,,,,
,,,,,,,,,,,,,,,,,,,,,,,,,,,,,,,,,,,e,2.680999994,CHAQUE,FALSE,1,0,5,1,1,4,147,jaqueta,Catalan,Sounds/cat_jaqueta.mp3,2020-06-16_12h01.52.352,TranslationElicitation_spa,3.2.4,Win32,60,5ee3ddcd3f9ded0c586a8edf,,,,,,,
,,,,,,,,,,,,,,,,,,,,,,,,,,,,,,,,,,,t,3.363999844,CHAQUET,FALSE,1,0,5,1,1,4,147,jaqueta,Catalan,Sounds/cat_jaqueta.mp3,2020-06-16_12h01.52.352,TranslationElicitation_spa,3.2.4,Win32,60,5ee3ddcd3f9ded0c586a8edf,,,,,,,
,,,,,,,,,,,,,,,,,,,,,,,,,,,,,,,,,,,a,3.747999907,CHAQUETA,FALSE,1,0,5,1,1,4,147,jaqueta,Catalan,Sounds/cat_jaqueta.mp3,2020-06-16_12h01.52.352,TranslationElicitation_spa,3.2.4,Win32,60,5ee3ddcd3f9ded0c586a8edf,,,,,,,
,,,,,,,,,,,,,,,,,,,,,,,,,,,,,,,,,,,return,62.38100004,,FALSE,1,0,5,1,1,4,147,jaqueta,Catalan,Sounds/cat_jaqueta.mp3,2020-06-16_12h01.52.352,TranslationElicitation_spa,3.2.4,Win32,60,5ee3ddcd3f9ded0c586a8edf,62.38100004,,,,,,
,,,,,,,,,,,,,,,,,,,,,,,,,,,,,,,,,,,,,,,1,0,5,1,1,4,147,jaqueta,Catalan,Sounds/cat_jaqueta.mp3,2020-06-16_12h01.52.352,TranslationElicitation_spa,3.2.4,Win32,60,5ee3ddcd3f9ded0c586a8edf,,,,,,,
,,,,,,,,,,,,,,,,,,,,,,,,,,,,,,,,,,,n,6.679000139,N,FALSE,1,0,5,4,1,4,179,tigre,Catalan,Sounds/cat_tigre.mp3,2020-06-16_12h01.52.352,TranslationElicitation_spa,3.2.4,Win32,60,5ee3ddcd3f9ded0c586a8edf,,,,,,,
,,,,,,,,,,,,,,,,,,,,,,,,,,,,,,,,,,,o,6.762000084,NO,FALSE,1,0,5,4,1,4,179,tigre,Catalan,Sounds/cat_tigre.mp3,2020-06-16_12h01.52.352,TranslationElicitation_spa,3.2.4,Win32,60,5ee3ddcd3f9ded0c586a8edf,,,,,,,
,,,,,,,,,,,,,,,,,,,,,,,,,,,,,,,,,,,return,7.529000044,,FALSE,1,0,5,4,1,4,179,tigre,Catalan,Sounds/cat_tigre.mp3,2020-06-16_12h01.52.352,TranslationElicitation_spa,3.2.4,Win32,60,5ee3ddcd3f9ded0c586a8edf,7.529000044,,,,,,
,,,,,,,,,,,,,,,,,,,,,,,,,,,,,,,,,,,,,,,1,0,5,4,1,4,179,tigre,Catalan,Sounds/cat_tigre.mp3,2020-06-16_12h01.52.352,TranslationElicitation_spa,3.2.4,Win32,60,5ee3ddcd3f9ded0c586a8edf,,,,,,,
,,,,,,,,,,,,,,,,,,,,,,,,,,,,,,,,,,,m,2.482000113,M,FALSE,1,0,5,2,1,4,159,onada,Catalan,Sounds/cat_onada.mp3,2020-06-16_12h01.52.352,TranslationElicitation_spa,3.2.4,Win32,60,5ee3ddcd3f9ded0c586a8edf,,,,,,,
,,,,,,,,,,,,,,,,,,,,,,,,,,,,,,,,,,,o,2.715000153,MO,FALSE,1,0,5,2,1,4,159,onada,Catalan,Sounds/cat_onada.mp3,2020-06-16_12h01.52.352,TranslationElicitation_spa,3.2.4,Win32,60,5ee3ddcd3f9ded0c586a8edf,,,,,,,
,,,,,,,,,,,,,,,,,,,,,,,,,,,,,,,,,,,n,3.015000105,MON,FALSE,1,0,5,2,1,4,159,onada,Catalan,Sounds/cat_onada.mp3,2020-06-16_12h01.52.352,TranslationElicitation_spa,3.2.4,Win32,60,5ee3ddcd3f9ded0c586a8edf,,,,,,,
,,,,,,,,,,,,,,,,,,,,,,,,,,,,,,,,,,,a,3.448000193,MONA,FALSE,1,0,5,2,1,4,159,onada,Catalan,Sounds/cat_onada.mp3,2020-06-16_12h01.52.352,TranslationElicitation_spa,3.2.4,Win32,60,5ee3ddcd3f9ded0c586a8edf,,,,,,,
,,,,,,,,,,,,,,,,,,,,,,,,,,,,,,,,,,,d,3.712000132,MONAD,FALSE,1,0,5,2,1,4,159,onada,Catalan,Sounds/cat_onada.mp3,2020-06-16_12h01.52.352,TranslationElicitation_spa,3.2.4,Win32,60,5ee3ddcd3f9ded0c586a8edf,,,,,,,
,,,,,,,,,,,,,,,,,,,,,,,,,,,,,,,,,,,a,3.853000164,MONADA,FALSE,1,0,5,2,1,4,159,onada,Catalan,Sounds/cat_onada.mp3,2020-06-16_12h01.52.352,TranslationElicitation_spa,3.2.4,Win32,60,5ee3ddcd3f9ded0c586a8edf,,,,,,,
,,,,,,,,,,,,,,,,,,,,,,,,,,,,,,,,,,,return,5.273000002,,FALSE,1,0,5,2,1,4,159,onada,Catalan,Sounds/cat_onada.mp3,2020-06-16_12h01.52.352,TranslationElicitation_spa,3.2.4,Win32,60,5ee3ddcd3f9ded0c586a8edf,5.273000002,,,,,,
,,,,,,,,,,,,,,,,,,,,,,,,,,,,,,,,,,,,,,,1,0,5,2,1,4,159,onada,Catalan,Sounds/cat_onada.mp3,2020-06-16_12h01.52.352,TranslationElicitation_spa,3.2.4,Win32,60,5ee3ddcd3f9ded0c586a8edf,,,,,,,
,,,,,,,,,,,,,,,,,,,,,,,,,,,,,,,,,,,l,9.813999891,L,FALSE,,,,,,,150,lloro,Catalan,Sounds/cat_lloro.mp3,2020-06-16_12h01.52.352,TranslationElicitation_spa,3.2.4,Win32,60,5ee3ddcd3f9ded0c586a8edf,,1,0,80,44,1,79
,,,,,,,,,,,,,,,,,,,,,,,,,,,,,,,,,,,o,10.06399989,LO,FALSE,,,,,,,150,lloro,Catalan,Sounds/cat_lloro.mp3,2020-06-16_12h01.52.352,TranslationElicitation_spa,3.2.4,Win32,60,5ee3ddcd3f9ded0c586a8edf,,1,0,80,44,1,79
,,,,,,,,,,,,,,,,,,,,,,,,,,,,,,,,,,,p,10.26399994,LOP,FALSE,,,,,,,150,lloro,Catalan,Sounds/cat_lloro.mp3,2020-06-16_12h01.52.352,TranslationElicitation_spa,3.2.4,Win32,60,5ee3ddcd3f9ded0c586a8edf,,1,0,80,44,1,79
,,,,,,,,,,,,,,,,,,,,,,,,,,,,,,,,,,,d,10.6309998,LOPD,FALSE,,,,,,,150,lloro,Catalan,Sounds/cat_lloro.mp3,2020-06-16_12h01.52.352,TranslationElicitation_spa,3.2.4,Win32,60,5ee3ddcd3f9ded0c586a8edf,,1,0,80,44,1,79
,,,,,,,,,,,,,,,,,,,,,,,,,,,,,,,,,,,u,10.89699984,LOPDU,FALSE,,,,,,,150,lloro,Catalan,Sounds/cat_lloro.mp3,2020-06-16_12h01.52.352,TranslationElicitation_spa,3.2.4,Win32,60,5ee3ddcd3f9ded0c586a8edf,,1,0,80,44,1,79
,,,,,,,,,,,,,,,,,,,,,,,,,,,,,,,,,,,backspace,11.81399989,LOP,TRUE,,,,,,,150,lloro,Catalan,Sounds/cat_lloro.mp3,2020-06-16_12h01.52.352,TranslationElicitation_spa,3.2.4,Win32,60,5ee3ddcd3f9ded0c586a8edf,,1,0,80,44,1,79
,,,,,,,,,,,,,,,,,,,,,,,,,,,,,,,,,,,backspace,12.02999997,L,TRUE,,,,,,,150,lloro,Catalan,Sounds/cat_lloro.mp3,2020-06-16_12h01.52.352,TranslationElicitation_spa,3.2.4,Win32,60,5ee3ddcd3f9ded0c586a8edf,,1,0,80,44,1,79
,,,,,,,,,,,,,,,,,,,,,,,,,,,,,,,,,,,o,12.9059999,LO,TRUE,,,,,,,150,lloro,Catalan,Sounds/cat_lloro.mp3,2020-06-16_12h01.52.352,TranslationElicitation_spa,3.2.4,Win32,60,5ee3ddcd3f9ded0c586a8edf,,1,0,80,44,1,79
,,,,,,,,,,,,,,,,,,,,,,,,,,,,,,,,,,,p,13.16499996,LOP,TRUE,,,,,,,150,lloro,Catalan,Sounds/cat_lloro.mp3,2020-06-16_12h01.52.352,TranslationElicitation_spa,3.2.4,Win32,60,5ee3ddcd3f9ded0c586a8edf,,1,0,80,44,1,79
,,,,,,,,,,,,,,,,,,,,,,,,,,,,,,,,,,,a,13.27999997,LOPA,TRUE,,,,,,,150,lloro,Catalan,Sounds/cat_lloro.mp3,2020-06-16_12h01.52.352,TranslationElicitation_spa,3.2.4,Win32,60,5ee3ddcd3f9ded0c586a8edf,,1,0,80,44,1,79
,,,,,,,,,,,,,,,,,,,,,,,,,,,,,,,,,,,d,13.54699993,LOPAD,TRUE,,,,,,,150,lloro,Catalan,Sounds/cat_lloro.mp3,2020-06-16_12h01.52.352,TranslationElicitation_spa,3.2.4,Win32,60,5ee3ddcd3f9ded0c586a8edf,,1,0,80,44,1,79
,,,,,,,,,,,,,,,,,,,,,,,,,,,,,,,,,,,u,13.76399994,LOPADU,TRUE,,,,,,,150,lloro,Catalan,Sounds/cat_lloro.mp3,2020-06-16_12h01.52.352,TranslationElicitation_spa,3.2.4,Win32,60,5ee3ddcd3f9ded0c586a8edf,,1,0,80,44,1,79
,,,,,,,,,,,,,,,,,,,,,,,,,,,,,,,,,,,return,14.42999983,,TRUE,,,,,,,150,lloro,Catalan,Sounds/cat_lloro.mp3,2020-06-16_12h01.52.352,TranslationElicitation_spa,3.2.4,Win32,60,5ee3ddcd3f9ded0c586a8edf,14.42999983,1,0,80,44,1,79
,,,,,,,,,,,,,,,,,,,,,,,,,,,,,,,,,,,,,,,,,,,,,150,lloro,Catalan,Sounds/cat_lloro.mp3,2020-06-16_12h01.52.352,TranslationElicitation_spa,3.2.4,Win32,60,5ee3ddcd3f9ded0c586a8edf,,1,0,80,44,1,79
,,,,,,,,,,,,,,,,,,,,,,,,,,,,,,,,,,,c,1.944000006,C,FALSE,,,,,,,126,corona,Catalan,Sounds/cat_corona.mp3,2020-06-16_12h01.52.352,TranslationElicitation_spa,3.2.4,Win32,60,5ee3ddcd3f9ded0c586a8edf,,1,0,80,21,1,79
,,,,,,,,,,,,,,,,,,,,,,,,,,,,,,,,,,,o,2.127000093,CO,FALSE,,,,,,,126,corona,Catalan,Sounds/cat_corona.mp3,2020-06-16_12h01.52.352,TranslationElicitation_spa,3.2.4,Win32,60,5ee3ddcd3f9ded0c586a8edf,,1,0,80,21,1,79
,,,,,,,,,,,,,,,,,,,,,,,,,,,,,,,,,,,r,2.427999973,COR,FALSE,,,,,,,126,corona,Catalan,Sounds/cat_corona.mp3,2020-06-16_12h01.52.352,TranslationElicitation_spa,3.2.4,Win32,60,5ee3ddcd3f9ded0c586a8edf,,1,0,80,21,1,79
,,,,,,,,,,,,,,,,,,,,,,,,,,,,,,,,,,,o,2.460999966,CORO,FALSE,,,,,,,126,corona,Catalan,Sounds/cat_corona.mp3,2020-06-16_12h01.52.352,TranslationElicitation_spa,3.2.4,Win32,60,5ee3ddcd3f9ded0c586a8edf,,1,0,80,21,1,79
,,,,,,,,,,,,,,,,,,,,,,,,,,,,,,,,,,,n,2.743999958,CORON,FALSE,,,,,,,126,corona,Catalan,Sounds/cat_corona.mp3,2020-06-16_12h01.52.352,TranslationElicitation_spa,3.2.4,Win32,60,5ee3ddcd3f9ded0c586a8edf,,1,0,80,21,1,79
,,,,,,,,,,,,,,,,,,,,,,,,,,,,,,,,,,,a,2.911000013,CORONA,FALSE,,,,,,,126,corona,Catalan,Sounds/cat_corona.mp3,2020-06-16_12h01.52.352,TranslationElicitation_spa,3.2.4,Win32,60,5ee3ddcd3f9ded0c586a8edf,,1,0,80,21,1,79
,,,,,,,,,,,,,,,,,,,,,,,,,,,,,,,,,,,return,3.927000046,,FALSE,,,,,,,126,corona,Catalan,Sounds/cat_corona.mp3,2020-06-16_12h01.52.352,TranslationElicitation_spa,3.2.4,Win32,60,5ee3ddcd3f9ded0c586a8edf,3.927000046,1,0,80,21,1,79
,,,,,,,,,,,,,,,,,,,,,,,,,,,,,,,,,,,,,,,,,,,,,126,corona,Catalan,Sounds/cat_corona.mp3,2020-06-16_12h01.52.352,TranslationElicitation_spa,3.2.4,Win32,60,5ee3ddcd3f9ded0c586a8edf,,1,0,80,21,1,79
,,,,,,,,,,,,,,,,,,,,,,,,,,,,,,,,,,,t,3.898999929,T,FALSE,,,,,,,178,taronja,Catalan,Sounds/cat_taronja.mp3,2020-06-16_12h01.52.352,TranslationElicitation_spa,3.2.4,Win32,60,5ee3ddcd3f9ded0c586a8edf,,1,0,80,70,1,79
,,,,,,,,,,,,,,,,,,,,,,,,,,,,,,,,,,,r,3.983999968,TR,FALSE,,,,,,,178,taronja,Catalan,Sounds/cat_taronja.mp3,2020-06-16_12h01.52.352,TranslationElicitation_spa,3.2.4,Win32,60,5ee3ddcd3f9ded0c586a8edf,,1,0,80,70,1,79
,,,,,,,,,,,,,,,,,,,,,,,,,,,,,,,,,,,a,4.613999844,TRA,FALSE,,,,,,,178,taronja,Catalan,Sounds/cat_taronja.mp3,2020-06-16_12h01.52.352,TranslationElicitation_spa,3.2.4,Win32,60,5ee3ddcd3f9ded0c586a8edf,,1,0,80,70,1,79
,,,,,,,,,,,,,,,,,,,,,,,,,,,,,,,,,,,n,4.815999985,TRAN,FALSE,,,,,,,178,taronja,Catalan,Sounds/cat_taronja.mp3,2020-06-16_12h01.52.352,TranslationElicitation_spa,3.2.4,Win32,60,5ee3ddcd3f9ded0c586a8edf,,1,0,80,70,1,79
,,,,,,,,,,,,,,,,,,,,,,,,,,,,,,,,,,,v,5.097999811,TRANV,FALSE,,,,,,,178,taronja,Catalan,Sounds/cat_taronja.mp3,2020-06-16_12h01.52.352,TranslationElicitation_spa,3.2.4,Win32,60,5ee3ddcd3f9ded0c586a8edf,,1,0,80,70,1,79
,,,,,,,,,,,,,,,,,,,,,,,,,,,,,,,,,,,i,5.245999813,TRANVI,FALSE,,,,,,,178,taronja,Catalan,Sounds/cat_taronja.mp3,2020-06-16_12h01.52.352,TranslationElicitation_spa,3.2.4,Win32,60,5ee3ddcd3f9ded0c586a8edf,,1,0,80,70,1,79
,,,,,,,,,,,,,,,,,,,,,,,,,,,,,,,,,,,a,5.413999796,TRANVIA,FALSE,,,,,,,178,taronja,Catalan,Sounds/cat_taronja.mp3,2020-06-16_12h01.52.352,TranslationElicitation_spa,3.2.4,Win32,60,5ee3ddcd3f9ded0c586a8edf,,1,0,80,70,1,79
,,,,,,,,,,,,,,,,,,,,,,,,,,,,,,,,,,,return,6.230999947,,FALSE,,,,,,,178,taronja,Catalan,Sounds/cat_taronja.mp3,2020-06-16_12h01.52.352,TranslationElicitation_spa,3.2.4,Win32,60,5ee3ddcd3f9ded0c586a8edf,6.230999947,1,0,80,70,1,79
,,,,,,,,,,,,,,,,,,,,,,,,,,,,,,,,,,,,,,,,,,,,,178,taronja,Catalan,Sounds/cat_taronja.mp3,2020-06-16_12h01.52.352,TranslationElicitation_spa,3.2.4,Win32,60,5ee3ddcd3f9ded0c586a8edf,,1,0,80,70,1,79
,,,,,,,,,,,,,,,,,,,,,,,,,,,,,,,,,,,p,2.31400013,P,FALSE,,,,,,,166,peu,Catalan,Sounds/cat_peu.mp3,2020-06-16_12h01.52.352,TranslationElicitation_spa,3.2.4,Win32,60,5ee3ddcd3f9ded0c586a8edf,,1,0,80,59,1,79
,,,,,,,,,,,,,,,,,,,,,,,,,,,,,,,,,,,e,2.481000185,PE,FALSE,,,,,,,166,peu,Catalan,Sounds/cat_peu.mp3,2020-06-16_12h01.52.352,TranslationElicitation_spa,3.2.4,Win32,60,5ee3ddcd3f9ded0c586a8edf,,1,0,80,59,1,79
,,,,,,,,,,,,,,,,,,,,,,,,,,,,,,,,,,,l,2.648000002,PEL,FALSE,,,,,,,166,peu,Catalan,Sounds/cat_peu.mp3,2020-06-16_12h01.52.352,TranslationElicitation_spa,3.2.4,Win32,60,5ee3ddcd3f9ded0c586a8edf,,1,0,80,59,1,79
,,,,,,,,,,,,,,,,,,,,,,,,,,,,,,,,,,,o,2.84800005,PELO,FALSE,,,,,,,166,peu,Catalan,Sounds/cat_peu.mp3,2020-06-16_12h01.52.352,TranslationElicitation_spa,3.2.4,Win32,60,5ee3ddcd3f9ded0c586a8edf,,1,0,80,59,1,79
,,,,,,,,,,,,,,,,,,,,,,,,,,,,,,,,,,,return,4.764000177,,FALSE,,,,,,,166,peu,Catalan,Sounds/cat_peu.mp3,2020-06-16_12h01.52.352,TranslationElicitation_spa,3.2.4,Win32,60,5ee3ddcd3f9ded0c586a8edf,4.764000177,1,0,80,59,1,79
,,,,,,,,,,,,,,,,,,,,,,,,,,,,,,,,,,,,,,,,,,,,,166,peu,Catalan,Sounds/cat_peu.mp3,2020-06-16_12h01.52.352,TranslationElicitation_spa,3.2.4,Win32,60,5ee3ddcd3f9ded0c586a8edf,,1,0,80,59,1,79
,,,,,,,,,,,,,,,,,,,,,,,,,,,,,,,,,,,l,1.815999985,L,FALSE,,,,,,,151,lluna,Catalan,Sounds/cat_lluna.mp3,2020-06-16_12h01.52.352,TranslationElicitation_spa,3.2.4,Win32,60,5ee3ddcd3f9ded0c586a8edf,,1,0,80,45,1,79
,,,,,,,,,,,,,,,,,,,,,,,,,,,,,,,,,,,u,2.465000153,LU,FALSE,,,,,,,151,lluna,Catalan,Sounds/cat_lluna.mp3,2020-06-16_12h01.52.352,TranslationElicitation_spa,3.2.4,Win32,60,5ee3ddcd3f9ded0c586a8edf,,1,0,80,45,1,79
,,,,,,,,,,,,,,,,,,,,,,,,,,,,,,,,,,,n,2.664999962,LUN,FALSE,,,,,,,151,lluna,Catalan,Sounds/cat_lluna.mp3,2020-06-16_12h01.52.352,TranslationElicitation_spa,3.2.4,Win32,60,5ee3ddcd3f9ded0c586a8edf,,1,0,80,45,1,79
,,,,,,,,,,,,,,,,,,,,,,,,,,,,,,,,,,,a,2.881000042,LUNA,FALSE,,,,,,,151,lluna,Catalan,Sounds/cat_lluna.mp3,2020-06-16_12h01.52.352,TranslationElicitation_spa,3.2.4,Win32,60,5ee3ddcd3f9ded0c586a8edf,,1,0,80,45,1,79
,,,,,,,,,,,,,,,,,,,,,,,,,,,,,,,,,,,return,3.298000097,,FALSE,,,,,,,151,lluna,Catalan,Sounds/cat_lluna.mp3,2020-06-16_12h01.52.352,TranslationElicitation_spa,3.2.4,Win32,60,5ee3ddcd3f9ded0c586a8edf,3.298000097,1,0,80,45,1,79
,,,,,,,,,,,,,,,,,,,,,,,,,,,,,,,,,,,,,,,,,,,,,151,lluna,Catalan,Sounds/cat_lluna.mp3,2020-06-16_12h01.52.352,TranslationElicitation_spa,3.2.4,Win32,60,5ee3ddcd3f9ded0c586a8edf,,1,0,80,45,1,79
,,,,,,,,,,,,,,,,,,,,,,,,,,,,,,,,,,,s,2.013999939,S,FALSE,,,,,,,177,sol,Catalan,Sounds/cat_sol.mp3,2020-06-16_12h01.52.352,TranslationElicitation_spa,3.2.4,Win32,60,5ee3ddcd3f9ded0c586a8edf,,1,0,80,69,1,79
,,,,,,,,,,,,,,,,,,,,,,,,,,,,,,,,,,,o,2.214999914,SO,FALSE,,,,,,,177,sol,Catalan,Sounds/cat_sol.mp3,2020-06-16_12h01.52.352,TranslationElicitation_spa,3.2.4,Win32,60,5ee3ddcd3f9ded0c586a8edf,,1,0,80,69,1,79
,,,,,,,,,,,,,,,,,,,,,,,,,,,,,,,,,,,l,2.430999994,SOL,FALSE,,,,,,,177,sol,Catalan,Sounds/cat_sol.mp3,2020-06-16_12h01.52.352,TranslationElicitation_spa,3.2.4,Win32,60,5ee3ddcd3f9ded0c586a8edf,,1,0,80,69,1,79
,,,,,,,,,,,,,,,,,,,,,,,,,,,,,,,,,,,return,2.880999804,,FALSE,,,,,,,177,sol,Catalan,Sounds/cat_sol.mp3,2020-06-16_12h01.52.352,TranslationElicitation_spa,3.2.4,Win32,60,5ee3ddcd3f9ded0c586a8edf,2.880999804,1,0,80,69,1,79
,,,,,,,,,,,,,,,,,,,,,,,,,,,,,,,,,,,,,,,,,,,,,177,sol,Catalan,Sounds/cat_sol.mp3,2020-06-16_12h01.52.352,TranslationElicitation_spa,3.2.4,Win32,60,5ee3ddcd3f9ded0c586a8edf,,1,0,80,69,1,79
,,,,,,,,,,,,,,,,,,,,,,,,,,,,,,,,,,,p,9.710000038,P,FALSE,,,,,,,171,pollastre,Catalan,Sounds/cat_pollastre.mp3,2020-06-16_12h01.52.352,TranslationElicitation_spa,3.2.4,Win32,60,5ee3ddcd3f9ded0c586a8edf,,1,0,80,63,1,79
,,,,,,,,,,,,,,,,,,,,,,,,,,,,,,,,,,,u,9.877000093,PU,FALSE,,,,,,,171,pollastre,Catalan,Sounds/cat_pollastre.mp3,2020-06-16_12h01.52.352,TranslationElicitation_spa,3.2.4,Win32,60,5ee3ddcd3f9ded0c586a8edf,,1,0,80,63,1,79
,,,,,,,,,,,,,,,,,,,,,,,,,,,,,,,,,,,l,10.02699995,PUL,FALSE,,,,,,,171,pollastre,Catalan,Sounds/cat_pollastre.mp3,2020-06-16_12h01.52.352,TranslationElicitation_spa,3.2.4,Win32,60,5ee3ddcd3f9ded0c586a8edf,,1,0,80,63,1,79
,,,,,,,,,,,,,,,,,,,,,,,,,,,,,,,,,,,a,10.39400005,PULA,FALSE,,,,,,,171,pollastre,Catalan,Sounds/cat_pollastre.mp3,2020-06-16_12h01.52.352,TranslationElicitation_spa,3.2.4,Win32,60,5ee3ddcd3f9ded0c586a8edf,,1,0,80,63,1,79
,,,,,,,,,,,,,,,,,,,,,,,,,,,,,,,,,,,s,10.55200005,PULAS,FALSE,,,,,,,171,pollastre,Catalan,Sounds/cat_pollastre.mp3,2020-06-16_12h01.52.352,TranslationElicitation_spa,3.2.4,Win32,60,5ee3ddcd3f9ded0c586a8edf,,1,0,80,63,1,79
,,,,,,,,,,,,,,,,,,,,,,,,,,,,,,,,,,,t,10.87700009,PULAST,FALSE,,,,,,,171,pollastre,Catalan,Sounds/cat_pollastre.mp3,2020-06-16_12h01.52.352,TranslationElicitation_spa,3.2.4,Win32,60,5ee3ddcd3f9ded0c586a8edf,,1,0,80,63,1,79
,,,,,,,,,,,,,,,,,,,,,,,,,,,,,,,,,,,r,10.92700005,PULASTR,FALSE,,,,,,,171,pollastre,Catalan,Sounds/cat_pollastre.mp3,2020-06-16_12h01.52.352,TranslationElicitation_spa,3.2.4,Win32,60,5ee3ddcd3f9ded0c586a8edf,,1,0,80,63,1,79
,,,,,,,,,,,,,,,,,,,,,,,,,,,,,,,,,,,a,11.23699999,PULASTRA,FALSE,,,,,,,171,pollastre,Catalan,Sounds/cat_pollastre.mp3,2020-06-16_12h01.52.352,TranslationElicitation_spa,3.2.4,Win32,60,5ee3ddcd3f9ded0c586a8edf,,1,0,80,63,1,79
,,,,,,,,,,,,,,,,,,,,,,,,,,,,,,,,,,,return,12.34299994,,FALSE,,,,,,,171,pollastre,Catalan,Sounds/cat_pollastre.mp3,2020-06-16_12h01.52.352,TranslationElicitation_spa,3.2.4,Win32,60,5ee3ddcd3f9ded0c586a8edf,12.34299994,1,0,80,63,1,79
,,,,,,,,,,,,,,,,,,,,,,,,,,,,,,,,,,,,,,,,,,,,,171,pollastre,Catalan,Sounds/cat_pollastre.mp3,2020-06-16_12h01.52.352,TranslationElicitation_spa,3.2.4,Win32,60,5ee3ddcd3f9ded0c586a8edf,,1,0,80,63,1,79
,,,,,,,,,,,,,,,,,,,,,,,,,,,,,,,,,,,g,1.828000069,G,FALSE,,,,,,,144,gorra,Catalan,Sounds/cat_gorra.mp3,2020-06-16_12h01.52.352,TranslationElicitation_spa,3.2.4,Win32,60,5ee3ddcd3f9ded0c586a8edf,,1,0,80,39,1,79
,,,,,,,,,,,,,,,,,,,,,,,,,,,,,,,,,,,o,1.993999958,GO,FALSE,,,,,,,144,gorra,Catalan,Sounds/cat_gorra.mp3,2020-06-16_12h01.52.352,TranslationElicitation_spa,3.2.4,Win32,60,5ee3ddcd3f9ded0c586a8edf,,1,0,80,39,1,79
,,,,,,,,,,,,,,,,,,,,,,,,,,,,,,,,,,,r,2.213000059,GOR,FALSE,,,,,,,144,gorra,Catalan,Sounds/cat_gorra.mp3,2020-06-16_12h01.52.352,TranslationElicitation_spa,3.2.4,Win32,60,5ee3ddcd3f9ded0c586a8edf,,1,0,80,39,1,79
,,,,,,,,,,,,,,,,,,,,,,,,,,,,,,,,,,,r,2.377000093,GORR,FALSE,,,,,,,144,gorra,Catalan,Sounds/cat_gorra.mp3,2020-06-16_12h01.52.352,TranslationElicitation_spa,3.2.4,Win32,60,5ee3ddcd3f9ded0c586a8edf,,1,0,80,39,1,79
,,,,,,,,,,,,,,,,,,,,,,,,,,,,,,,,,,,a,2.611000061,GORRA,FALSE,,,,,,,144,gorra,Catalan,Sounds/cat_gorra.mp3,2020-06-16_12h01.52.352,TranslationElicitation_spa,3.2.4,Win32,60,5ee3ddcd3f9ded0c586a8edf,,1,0,80,39,1,79
,,,,,,,,,,,,,,,,,,,,,,,,,,,,,,,,,,,return,3.279000044,,FALSE,,,,,,,144,gorra,Catalan,Sounds/cat_gorra.mp3,2020-06-16_12h01.52.352,TranslationElicitation_spa,3.2.4,Win32,60,5ee3ddcd3f9ded0c586a8edf,3.279000044,1,0,80,39,1,79
,,,,,,,,,,,,,,,,,,,,,,,,,,,,,,,,,,,,,,,,,,,,,144,gorra,Catalan,Sounds/cat_gorra.mp3,2020-06-16_12h01.52.352,TranslationElicitation_spa,3.2.4,Win32,60,5ee3ddcd3f9ded0c586a8edf,,1,0,80,39,1,79
,,,,,,,,,,,,,,,,,,,,,,,,,,,,,,,,,,,t,1.845999956,T,FALSE,,,,,,,182,tomaquet,Catalan,Sounds/cat_tomaquet.mp3,2020-06-16_12h01.52.352,TranslationElicitation_spa,3.2.4,Win32,60,5ee3ddcd3f9ded0c586a8edf,,1,0,80,73,1,79
,,,,,,,,,,,,,,,,,,,,,,,,,,,,,,,,,,,o,1.980999947,TO,FALSE,,,,,,,182,tomaquet,Catalan,Sounds/cat_tomaquet.mp3,2020-06-16_12h01.52.352,TranslationElicitation_spa,3.2.4,Win32,60,5ee3ddcd3f9ded0c586a8edf,,1,0,80,73,1,79
,,,,,,,,,,,,,,,,,,,,,,,,,,,,,,,,,,,m,2.279999971,TOM,FALSE,,,,,,,182,tomaquet,Catalan,Sounds/cat_tomaquet.mp3,2020-06-16_12h01.52.352,TranslationElicitation_spa,3.2.4,Win32,60,5ee3ddcd3f9ded0c586a8edf,,1,0,80,73,1,79
,,,,,,,,,,,,,,,,,,,,,,,,,,,,,,,,,,,a,2.480000019,TOMA,FALSE,,,,,,,182,tomaquet,Catalan,Sounds/cat_tomaquet.mp3,2020-06-16_12h01.52.352,TranslationElicitation_spa,3.2.4,Win32,60,5ee3ddcd3f9ded0c586a8edf,,1,0,80,73,1,79
,,,,,,,,,,,,,,,,,,,,,,,,,,,,,,,,,,,t,2.80099988,TOMAT,FALSE,,,,,,,182,tomaquet,Catalan,Sounds/cat_tomaquet.mp3,2020-06-16_12h01.52.352,TranslationElicitation_spa,3.2.4,Win32,60,5ee3ddcd3f9ded0c586a8edf,,1,0,80,73,1,79
,,,,,,,,,,,,,,,,,,,,,,,,,,,,,,,,,,,e,2.915999889,TOMATE,FALSE,,,,,,,182,tomaquet,Catalan,Sounds/cat_tomaquet.mp3,2020-06-16_12h01.52.352,TranslationElicitation_spa,3.2.4,Win32,60,5ee3ddcd3f9ded0c586a8edf,,1,0,80,73,1,79
,,,,,,,,,,,,,,,,,,,,,,,,,,,,,,,,,,,return,3.813999891,,FALSE,,,,,,,182,tomaquet,Catalan,Sounds/cat_tomaquet.mp3,2020-06-16_12h01.52.352,TranslationElicitation_spa,3.2.4,Win32,60,5ee3ddcd3f9ded0c586a8edf,3.813999891,1,0,80,73,1,79
,,,,,,,,,,,,,,,,,,,,,,,,,,,,,,,,,,,,,,,,,,,,,182,tomaquet,Catalan,Sounds/cat_tomaquet.mp3,2020-06-16_12h01.52.352,TranslationElicitation_spa,3.2.4,Win32,60,5ee3ddcd3f9ded0c586a8edf,,1,0,80,73,1,79
,,,,,,,,,,,,,,,,,,,,,,,,,,,,,,,,,,,g,3.54700017,G,FALSE,,,,,,,117,boto,Catalan,Sounds/cat_boto.mp3,2020-06-16_12h01.52.352,TranslationElicitation_spa,3.2.4,Win32,60,5ee3ddcd3f9ded0c586a8edf,,1,0,80,12,1,79
,,,,,,,,,,,,,,,,,,,,,,,,,,,,,,,,,,,o,3.697000027,GO,FALSE,,,,,,,117,boto,Catalan,Sounds/cat_boto.mp3,2020-06-16_12h01.52.352,TranslationElicitation_spa,3.2.4,Win32,60,5ee3ddcd3f9ded0c586a8edf,,1,0,80,12,1,79
,,,,,,,,,,,,,,,,,,,,,,,,,,,,,,,,,,,t,3.981000185,GOT,FALSE,,,,,,,117,boto,Catalan,Sounds/cat_boto.mp3,2020-06-16_12h01.52.352,TranslationElicitation_spa,3.2.4,Win32,60,5ee3ddcd3f9ded0c586a8edf,,1,0,80,12,1,79
,,,,,,,,,,,,,,,,,,,,,,,,,,,,,,,,,,,a,4.370000124,GOTA,FALSE,,,,,,,117,boto,Catalan,Sounds/cat_boto.mp3,2020-06-16_12h01.52.352,TranslationElicitation_spa,3.2.4,Win32,60,5ee3ddcd3f9ded0c586a8edf,,1,0,80,12,1,79
,,,,,,,,,,,,,,,,,,,,,,,,,,,,,,,,,,,return,9.713999987,,FALSE,,,,,,,117,boto,Catalan,Sounds/cat_boto.mp3,2020-06-16_12h01.52.352,TranslationElicitation_spa,3.2.4,Win32,60,5ee3ddcd3f9ded0c586a8edf,9.713999987,1,0,80,12,1,79
,,,,,,,,,,,,,,,,,,,,,,,,,,,,,,,,,,,,,,,,,,,,,117,boto,Catalan,Sounds/cat_boto.mp3,2020-06-16_12h01.52.352,TranslationElicitation_spa,3.2.4,Win32,60,5ee3ddcd3f9ded0c586a8edf,,1,0,80,12,1,79
,,,,,,,,,,,,,,,,,,,,,,,,,,,,,,,,,,,l,2.511000156,L,FALSE,,,,,,,111,bibero,Catalan,Sounds/cat_bibero.mp3,2020-06-16_12h01.52.352,TranslationElicitation_spa,3.2.4,Win32,60,5ee3ddcd3f9ded0c586a8edf,,1,0,80,6,1,79
,,,,,,,,,,,,,,,,,,,,,,,,,,,,,,,,,,,i,2.77699995,LI,FALSE,,,,,,,111,bibero,Catalan,Sounds/cat_bibero.mp3,2020-06-16_12h01.52.352,TranslationElicitation_spa,3.2.4,Win32,60,5ee3ddcd3f9ded0c586a8edf,,1,0,80,6,1,79
,,,,,,,,,,,,,,,,,,,,,,,,,,,,,,,,,,,b,2.960000038,LIB,FALSE,,,,,,,111,bibero,Catalan,Sounds/cat_bibero.mp3,2020-06-16_12h01.52.352,TranslationElicitation_spa,3.2.4,Win32,60,5ee3ddcd3f9ded0c586a8edf,,1,0,80,6,1,79
,,,,,,,,,,,,,,,,,,,,,,,,,,,,,,,,,,,e,3.193000078,LIBE,FALSE,,,,,,,111,bibero,Catalan,Sounds/cat_bibero.mp3,2020-06-16_12h01.52.352,TranslationElicitation_spa,3.2.4,Win32,60,5ee3ddcd3f9ded0c586a8edf,,1,0,80,6,1,79
,,,,,,,,,,,,,,,,,,,,,,,,,,,,,,,,,,,r,3.27699995,LIBER,FALSE,,,,,,,111,bibero,Catalan,Sounds/cat_bibero.mp3,2020-06-16_12h01.52.352,TranslationElicitation_spa,3.2.4,Win32,60,5ee3ddcd3f9ded0c586a8edf,,1,0,80,6,1,79
,,,,,,,,,,,,,,,,,,,,,,,,,,,,,,,,,,,t,3.478000164,LIBERT,FALSE,,,,,,,111,bibero,Catalan,Sounds/cat_bibero.mp3,2020-06-16_12h01.52.352,TranslationElicitation_spa,3.2.4,Win32,60,5ee3ddcd3f9ded0c586a8edf,,1,0,80,6,1,79
,,,,,,,,,,,,,,,,,,,,,,,,,,,,,,,,,,,a,3.677999973,LIBERTA,FALSE,,,,,,,111,bibero,Catalan,Sounds/cat_bibero.mp3,2020-06-16_12h01.52.352,TranslationElicitation_spa,3.2.4,Win32,60,5ee3ddcd3f9ded0c586a8edf,,1,0,80,6,1,79
,,,,,,,,,,,,,,,,,,,,,,,,,,,,,,,,,,,d,3.811000109,LIBERTAD,FALSE,,,,,,,111,bibero,Catalan,Sounds/cat_bibero.mp3,2020-06-16_12h01.52.352,TranslationElicitation_spa,3.2.4,Win32,60,5ee3ddcd3f9ded0c586a8edf,,1,0,80,6,1,79
,,,,,,,,,,,,,,,,,,,,,,,,,,,,,,,,,,,return,4.226999998,,FALSE,,,,,,,111,bibero,Catalan,Sounds/cat_bibero.mp3,2020-06-16_12h01.52.352,TranslationElicitation_spa,3.2.4,Win32,60,5ee3ddcd3f9ded0c586a8edf,4.226999998,1,0,80,6,1,79
,,,,,,,,,,,,,,,,,,,,,,,,,,,,,,,,,,,,,,,,,,,,,111,bibero,Catalan,Sounds/cat_bibero.mp3,2020-06-16_12h01.52.352,TranslationElicitation_spa,3.2.4,Win32,60,5ee3ddcd3f9ded0c586a8edf,,1,0,80,6,1,79
,,,,,,,,,,,,,,,,,,,,,,,,,,,,,,,,,,,v,5.615999937,V,FALSE,,,,,,,116,bolquer,Catalan,Sounds/cat_bolquer.mp3,2020-06-16_12h01.52.352,TranslationElicitation_spa,3.2.4,Win32,60,5ee3ddcd3f9ded0c586a8edf,,1,0,80,11,1,79
,,,,,,,,,,,,,,,,,,,,,,,,,,,,,,,,,,,o,5.747999907,VO,FALSE,,,,,,,116,bolquer,Catalan,Sounds/cat_bolquer.mp3,2020-06-16_12h01.52.352,TranslationElicitation_spa,3.2.4,Win32,60,5ee3ddcd3f9ded0c586a8edf,,1,0,80,11,1,79
,,,,,,,,,,,,,,,,,,,,,,,,,,,,,,,,,,,l,5.947999954,VOL,FALSE,,,,,,,116,bolquer,Catalan,Sounds/cat_bolquer.mp3,2020-06-16_12h01.52.352,TranslationElicitation_spa,3.2.4,Win32,60,5ee3ddcd3f9ded0c586a8edf,,1,0,80,11,1,79
,,,,,,,,,,,,,,,,,,,,,,,,,,,,,,,,,,,c,6.083999872,VOLC,FALSE,,,,,,,116,bolquer,Catalan,Sounds/cat_bolquer.mp3,2020-06-16_12h01.52.352,TranslationElicitation_spa,3.2.4,Win32,60,5ee3ddcd3f9ded0c586a8edf,,1,0,80,11,1,79
,,,,,,,,,,,,,,,,,,,,,,,,,,,,,,,,,,,a,6.280999899,VOLCA,FALSE,,,,,,,116,bolquer,Catalan,Sounds/cat_bolquer.mp3,2020-06-16_12h01.52.352,TranslationElicitation_spa,3.2.4,Win32,60,5ee3ddcd3f9ded0c586a8edf,,1,0,80,11,1,79
,,,,,,,,,,,,,,,,,,,,,,,,,,,,,,,,,,,r,6.497999907,VOLCAR,FALSE,,,,,,,116,bolquer,Catalan,Sounds/cat_bolquer.mp3,2020-06-16_12h01.52.352,TranslationElicitation_spa,3.2.4,Win32,60,5ee3ddcd3f9ded0c586a8edf,,1,0,80,11,1,79
,,,,,,,,,,,,,,,,,,,,,,,,,,,,,,,,,,,return,6.75,,FALSE,,,,,,,116,bolquer,Catalan,Sounds/cat_bolquer.mp3,2020-06-16_12h01.52.352,TranslationElicitation_spa,3.2.4,Win32,60,5ee3ddcd3f9ded0c586a8edf,6.75,1,0,80,11,1,79
,,,,,,,,,,,,,,,,,,,,,,,,,,,,,,,,,,,,,,,,,,,,,116,bolquer,Catalan,Sounds/cat_bolquer.mp3,2020-06-16_12h01.52.352,TranslationElicitation_spa,3.2.4,Win32,60,5ee3ddcd3f9ded0c586a8edf,,1,0,80,11,1,79
,,,,,,,,,,,,,,,,,,,,,,,,,,,,,,,,,,,m,7.080999851,M,FALSE,,,,,,,107,amanida,Catalan,Sounds/cat_amanida.mp3,2020-06-16_12h01.52.352,TranslationElicitation_spa,3.2.4,Win32,60,5ee3ddcd3f9ded0c586a8edf,,1,0,80,3,1,79
,,,,,,,,,,,,,,,,,,,,,,,,,,,,,,,,,,,a,7.213999987,MA,FALSE,,,,,,,107,amanida,Catalan,Sounds/cat_amanida.mp3,2020-06-16_12h01.52.352,TranslationElicitation_spa,3.2.4,Win32,60,5ee3ddcd3f9ded0c586a8edf,,1,0,80,3,1,79
,,,,,,,,,,,,,,,,,,,,,,,,,,,,,,,,,,,semicolon,7.596999884,MAÑ,FALSE,,,,,,,107,amanida,Catalan,Sounds/cat_amanida.mp3,2020-06-16_12h01.52.352,TranslationElicitation_spa,3.2.4,Win32,60,5ee3ddcd3f9ded0c586a8edf,,1,0,80,3,1,79
,,,,,,,,,,,,,,,,,,,,,,,,,,,,,,,,,,,a,7.730999947,MAÑA,FALSE,,,,,,,107,amanida,Catalan,Sounds/cat_amanida.mp3,2020-06-16_12h01.52.352,TranslationElicitation_spa,3.2.4,Win32,60,5ee3ddcd3f9ded0c586a8edf,,1,0,80,3,1,79
,,,,,,,,,,,,,,,,,,,,,,,,,,,,,,,,,,,n,7.933999777,MAÑAN,FALSE,,,,,,,107,amanida,Catalan,Sounds/cat_amanida.mp3,2020-06-16_12h01.52.352,TranslationElicitation_spa,3.2.4,Win32,60,5ee3ddcd3f9ded0c586a8edf,,1,0,80,3,1,79
,,,,,,,,,,,,,,,,,,,,,,,,,,,,,,,,,,,a,8.017999887,MAÑANA,FALSE,,,,,,,107,amanida,Catalan,Sounds/cat_amanida.mp3,2020-06-16_12h01.52.352,TranslationElicitation_spa,3.2.4,Win32,60,5ee3ddcd3f9ded0c586a8edf,,1,0,80,3,1,79
,,,,,,,,,,,,,,,,,,,,,,,,,,,,,,,,,,,return,8.896999836,,FALSE,,,,,,,107,amanida,Catalan,Sounds/cat_amanida.mp3,2020-06-16_12h01.52.352,TranslationElicitation_spa,3.2.4,Win32,60,5ee3ddcd3f9ded0c586a8edf,8.896999836,1,0,80,3,1,79
,,,,,,,,,,,,,,,,,,,,,,,,,,,,,,,,,,,,,,,,,,,,,107,amanida,Catalan,Sounds/cat_amanida.mp3,2020-06-16_12h01.52.352,TranslationElicitation_spa,3.2.4,Win32,60,5ee3ddcd3f9ded0c586a8edf,,1,0,80,3,1,79
,,,,,,,,,,,,,,,,,,,,,,,,,,,,,,,,,,,c,2.565000057,C,FALSE,,,,,,,125,colom,Catalan,Sounds/cat_colom.mp3,2020-06-16_12h01.52.352,TranslationElicitation_spa,3.2.4,Win32,60,5ee3ddcd3f9ded0c586a8edf,,1,0,80,20,1,79
,,,,,,,,,,,,,,,,,,,,,,,,,,,,,,,,,,,u,2.714999914,CU,FALSE,,,,,,,125,colom,Catalan,Sounds/cat_colom.mp3,2020-06-16_12h01.52.352,TranslationElicitation_spa,3.2.4,Win32,60,5ee3ddcd3f9ded0c586a8edf,,1,0,80,20,1,79
,,,,,,,,,,,,,,,,,,,,,,,,,,,,,,,,,,,l,3.499000072,CUL,FALSE,,,,,,,125,colom,Catalan,Sounds/cat_colom.mp3,2020-06-16_12h01.52.352,TranslationElicitation_spa,3.2.4,Win32,60,5ee3ddcd3f9ded0c586a8edf,,1,0,80,20,1,79
,,,,,,,,,,,,,,,,,,,,,,,,,,,,,,,,,,,o,3.619999886,CULO,FALSE,,,,,,,125,colom,Catalan,Sounds/cat_colom.mp3,2020-06-16_12h01.52.352,TranslationElicitation_spa,3.2.4,Win32,60,5ee3ddcd3f9ded0c586a8edf,,1,0,80,20,1,79
,,,,,,,,,,,,,,,,,,,,,,,,,,,,,,,,,,,return,3.980999947,,FALSE,,,,,,,125,colom,Catalan,Sounds/cat_colom.mp3,2020-06-16_12h01.52.352,TranslationElicitation_spa,3.2.4,Win32,60,5ee3ddcd3f9ded0c586a8edf,3.980999947,1,0,80,20,1,79
,,,,,,,,,,,,,,,,,,,,,,,,,,,,,,,,,,,,,,,,,,,,,125,colom,Catalan,Sounds/cat_colom.mp3,2020-06-16_12h01.52.352,TranslationElicitation_spa,3.2.4,Win32,60,5ee3ddcd3f9ded0c586a8edf,,1,0,80,20,1,79
,,,,,,,,,,,,,,,,,,,,,,,,,,,,,,,,,,,p,2.099999905,P,FALSE,,,,,,,164,patata,Catalan,Sounds/cat_patata.mp3,2020-06-16_12h01.52.352,TranslationElicitation_spa,3.2.4,Win32,60,5ee3ddcd3f9ded0c586a8edf,,1,0,80,57,1,79
,,,,,,,,,,,,,,,,,,,,,,,,,,,,,,,,,,,a,2.332999945,PA,FALSE,,,,,,,164,patata,Catalan,Sounds/cat_patata.mp3,2020-06-16_12h01.52.352,TranslationElicitation_spa,3.2.4,Win32,60,5ee3ddcd3f9ded0c586a8edf,,1,0,80,57,1,79
,,,,,,,,,,,,,,,,,,,,,,,,,,,,,,,,,,,t,2.699999809,PAT,FALSE,,,,,,,164,patata,Catalan,Sounds/cat_patata.mp3,2020-06-16_12h01.52.352,TranslationElicitation_spa,3.2.4,Win32,60,5ee3ddcd3f9ded0c586a8edf,,1,0,80,57,1,79
,,,,,,,,,,,,,,,,,,,,,,,,,,,,,,,,,,,a,3.000999928,PATA,FALSE,,,,,,,164,patata,Catalan,Sounds/cat_patata.mp3,2020-06-16_12h01.52.352,TranslationElicitation_spa,3.2.4,Win32,60,5ee3ddcd3f9ded0c586a8edf,,1,0,80,57,1,79
,,,,,,,,,,,,,,,,,,,,,,,,,,,,,,,,,,,t,3.349999905,PATAT,FALSE,,,,,,,164,patata,Catalan,Sounds/cat_patata.mp3,2020-06-16_12h01.52.352,TranslationElicitation_spa,3.2.4,Win32,60,5ee3ddcd3f9ded0c586a8edf,,1,0,80,57,1,79
,,,,,,,,,,,,,,,,,,,,,,,,,,,,,,,,,,,a,3.603999853,PATATA,FALSE,,,,,,,164,patata,Catalan,Sounds/cat_patata.mp3,2020-06-16_12h01.52.352,TranslationElicitation_spa,3.2.4,Win32,60,5ee3ddcd3f9ded0c586a8edf,,1,0,80,57,1,79
,,,,,,,,,,,,,,,,,,,,,,,,,,,,,,,,,,,return,3.882999897,,FALSE,,,,,,,164,patata,Catalan,Sounds/cat_patata.mp3,2020-06-16_12h01.52.352,TranslationElicitation_spa,3.2.4,Win32,60,5ee3ddcd3f9ded0c586a8edf,3.882999897,1,0,80,57,1,79
,,,,,,,,,,,,,,,,,,,,,,,,,,,,,,,,,,,,,,,,,,,,,164,patata,Catalan,Sounds/cat_patata.mp3,2020-06-16_12h01.52.352,TranslationElicitation_spa,3.2.4,Win32,60,5ee3ddcd3f9ded0c586a8edf,,1,0,80,57,1,79
,,,,,,,,,,,,,,,,,,,,,,,,,,,,,,,,,,,p,1.84800005,P,FALSE,,,,,,,168,planta,Catalan,Sounds/cat_planta.mp3,2020-06-16_12h01.52.352,TranslationElicitation_spa,3.2.4,Win32,60,5ee3ddcd3f9ded0c586a8edf,,1,0,80,60,1,79
,,,,,,,,,,,,,,,,,,,,,,,,,,,,,,,,,,,l,2.080999851,PL,FALSE,,,,,,,168,planta,Catalan,Sounds/cat_planta.mp3,2020-06-16_12h01.52.352,TranslationElicitation_spa,3.2.4,Win32,60,5ee3ddcd3f9ded0c586a8edf,,1,0,80,60,1,79
,,,,,,,,,,,,,,,,,,,,,,,,,,,,,,,,,,,a,2.315999985,PLA,FALSE,,,,,,,168,planta,Catalan,Sounds/cat_planta.mp3,2020-06-16_12h01.52.352,TranslationElicitation_spa,3.2.4,Win32,60,5ee3ddcd3f9ded0c586a8edf,,1,0,80,60,1,79
,,,,,,,,,,,,,,,,,,,,,,,,,,,,,,,,,,,n,2.480999947,PLAN,FALSE,,,,,,,168,planta,Catalan,Sounds/cat_planta.mp3,2020-06-16_12h01.52.352,TranslationElicitation_spa,3.2.4,Win32,60,5ee3ddcd3f9ded0c586a8edf,,1,0,80,60,1,79
,,,,,,,,,,,,,,,,,,,,,,,,,,,,,,,,,,,t,2.780999899,PLANT,FALSE,,,,,,,168,planta,Catalan,Sounds/cat_planta.mp3,2020-06-16_12h01.52.352,TranslationElicitation_spa,3.2.4,Win32,60,5ee3ddcd3f9ded0c586a8edf,,1,0,80,60,1,79
,,,,,,,,,,,,,,,,,,,,,,,,,,,,,,,,,,,a,3.047999859,PLANTA,FALSE,,,,,,,168,planta,Catalan,Sounds/cat_planta.mp3,2020-06-16_12h01.52.352,TranslationElicitation_spa,3.2.4,Win32,60,5ee3ddcd3f9ded0c586a8edf,,1,0,80,60,1,79
,,,,,,,,,,,,,,,,,,,,,,,,,,,,,,,,,,,return,4.082000017,,FALSE,,,,,,,168,planta,Catalan,Sounds/cat_planta.mp3,2020-06-16_12h01.52.352,TranslationElicitation_spa,3.2.4,Win32,60,5ee3ddcd3f9ded0c586a8edf,4.082000017,1,0,80,60,1,79
,,,,,,,,,,,,,,,,,,,,,,,,,,,,,,,,,,,,,,,,,,,,,168,planta,Catalan,Sounds/cat_planta.mp3,2020-06-16_12h01.52.352,TranslationElicitation_spa,3.2.4,Win32,60,5ee3ddcd3f9ded0c586a8edf,,1,0,80,60,1,79
,,,,,,,,,,,,,,,,,,,,,,,,,,,,,,,,,,,p,9.33100009,P,FALSE,,,,,,,105,aigua,Catalan,Sounds/cat_aigua.mp3,2020-06-16_12h01.52.352,TranslationElicitation_spa,3.2.4,Win32,60,5ee3ddcd3f9ded0c586a8edf,,1,0,80,1,1,79
,,,,,,,,,,,,,,,,,,,,,,,,,,,,,,,,,,,a,9.81400013,PA,FALSE,,,,,,,105,aigua,Catalan,Sounds/cat_aigua.mp3,2020-06-16_12h01.52.352,TranslationElicitation_spa,3.2.4,Win32,60,5ee3ddcd3f9ded0c586a8edf,,1,0,80,1,1,79
,,,,,,,,,,,,,,,,,,,,,,,,,,,,,,,,,,,i,10.43000007,PAI,FALSE,,,,,,,105,aigua,Catalan,Sounds/cat_aigua.mp3,2020-06-16_12h01.52.352,TranslationElicitation_spa,3.2.4,Win32,60,5ee3ddcd3f9ded0c586a8edf,,1,0,80,1,1,79
,,,,,,,,,,,,,,,,,,,,,,,,,,,,,,,,,,,g,10.53100014,PAIG,FALSE,,,,,,,105,aigua,Catalan,Sounds/cat_aigua.mp3,2020-06-16_12h01.52.352,TranslationElicitation_spa,3.2.4,Win32,60,5ee3ddcd3f9ded0c586a8edf,,1,0,80,1,1,79
,,,,,,,,,,,,,,,,,,,,,,,,,,,,,,,,,,,u,10.68000007,PAIGU,FALSE,,,,,,,105,aigua,Catalan,Sounds/cat_aigua.mp3,2020-06-16_12h01.52.352,TranslationElicitation_spa,3.2.4,Win32,60,5ee3ddcd3f9ded0c586a8edf,,1,0,80,1,1,79
,,,,,,,,,,,,,,,,,,,,,,,,,,,,,,,,,,,backspace,11.24600005,PAI,TRUE,,,,,,,105,aigua,Catalan,Sounds/cat_aigua.mp3,2020-06-16_12h01.52.352,TranslationElicitation_spa,3.2.4,Win32,60,5ee3ddcd3f9ded0c586a8edf,,1,0,80,1,1,79
,,,,,,,,,,,,,,,,,,,,,,,,,,,,,,,,,,,backspace,11.39600015,P,TRUE,,,,,,,105,aigua,Catalan,Sounds/cat_aigua.mp3,2020-06-16_12h01.52.352,TranslationElicitation_spa,3.2.4,Win32,60,5ee3ddcd3f9ded0c586a8edf,,1,0,80,1,1,79
,,,,,,,,,,,,,,,,,,,,,,,,,,,,,,,,,,,a,12.1960001,PA,TRUE,,,,,,,105,aigua,Catalan,Sounds/cat_aigua.mp3,2020-06-16_12h01.52.352,TranslationElicitation_spa,3.2.4,Win32,60,5ee3ddcd3f9ded0c586a8edf,,1,0,80,1,1,79
,,,,,,,,,,,,,,,,,,,,,,,,,,,,,,,,,,,n,12.34599996,PAN,TRUE,,,,,,,105,aigua,Catalan,Sounds/cat_aigua.mp3,2020-06-16_12h01.52.352,TranslationElicitation_spa,3.2.4,Win32,60,5ee3ddcd3f9ded0c586a8edf,,1,0,80,1,1,79
,,,,,,,,,,,,,,,,,,,,,,,,,,,,,,,,,,,i,12.92900014,PANI,TRUE,,,,,,,105,aigua,Catalan,Sounds/cat_aigua.mp3,2020-06-16_12h01.52.352,TranslationElicitation_spa,3.2.4,Win32,60,5ee3ddcd3f9ded0c586a8edf,,1,0,80,1,1,79
,,,,,,,,,,,,,,,,,,,,,,,,,,,,,,,,,,,g,13.21300006,PANIG,TRUE,,,,,,,105,aigua,Catalan,Sounds/cat_aigua.mp3,2020-06-16_12h01.52.352,TranslationElicitation_spa,3.2.4,Win32,60,5ee3ddcd3f9ded0c586a8edf,,1,0,80,1,1,79
,,,,,,,,,,,,,,,,,,,,,,,,,,,,,,,,,,,u,13.329,PANIGU,TRUE,,,,,,,105,aigua,Catalan,Sounds/cat_aigua.mp3,2020-06-16_12h01.52.352,TranslationElicitation_spa,3.2.4,Win32,60,5ee3ddcd3f9ded0c586a8edf,,1,0,80,1,1,79
,,,,,,,,,,,,,,,,,,,,,,,,,,,,,,,,,,,a,13.52900004,PANIGUA,TRUE,,,,,,,105,aigua,Catalan,Sounds/cat_aigua.mp3,2020-06-16_12h01.52.352,TranslationElicitation_spa,3.2.4,Win32,60,5ee3ddcd3f9ded0c586a8edf,,1,0,80,1,1,79
,,,,,,,,,,,,,,,,,,,,,,,,,,,,,,,,,,,return,13.77900004,,TRUE,,,,,,,105,aigua,Catalan,Sounds/cat_aigua.mp3,2020-06-16_12h01.52.352,TranslationElicitation_spa,3.2.4,Win32,60,5ee3ddcd3f9ded0c586a8edf,13.77900004,1,0,80,1,1,79
,,,,,,,,,,,,,,,,,,,,,,,,,,,,,,,,,,,,,,,,,,,,,105,aigua,Catalan,Sounds/cat_aigua.mp3,2020-06-16_12h01.52.352,TranslationElicitation_spa,3.2.4,Win32,60,5ee3ddcd3f9ded0c586a8edf,,1,0,80,1,1,79
,,,,,,,,,,,,,,,,,,,,,,,,,,,,,,,,,,,c,2.095000029,C,FALSE,,,,,,,120,cama,Catalan,Sounds/cat_cama.mp3,2020-06-16_12h01.52.352,TranslationElicitation_spa,3.2.4,Win32,60,5ee3ddcd3f9ded0c586a8edf,,1,0,80,15,1,79
,,,,,,,,,,,,,,,,,,,,,,,,,,,,,,,,,,,a,2.245000124,CA,FALSE,,,,,,,120,cama,Catalan,Sounds/cat_cama.mp3,2020-06-16_12h01.52.352,TranslationElicitation_spa,3.2.4,Win32,60,5ee3ddcd3f9ded0c586a8edf,,1,0,80,15,1,79
,,,,,,,,,,,,,,,,,,,,,,,,,,,,,,,,,,,m,2.394000053,CAM,FALSE,,,,,,,120,cama,Catalan,Sounds/cat_cama.mp3,2020-06-16_12h01.52.352,TranslationElicitation_spa,3.2.4,Win32,60,5ee3ddcd3f9ded0c586a8edf,,1,0,80,15,1,79
,,,,,,,,,,,,,,,,,,,,,,,,,,,,,,,,,,,a,2.50999999,CAMA,FALSE,,,,,,,120,cama,Catalan,Sounds/cat_cama.mp3,2020-06-16_12h01.52.352,TranslationElicitation_spa,3.2.4,Win32,60,5ee3ddcd3f9ded0c586a8edf,,1,0,80,15,1,79
,,,,,,,,,,,,,,,,,,,,,,,,,,,,,,,,,,,return,3.161999941,,FALSE,,,,,,,120,cama,Catalan,Sounds/cat_cama.mp3,2020-06-16_12h01.52.352,TranslationElicitation_spa,3.2.4,Win32,60,5ee3ddcd3f9ded0c586a8edf,3.161999941,1,0,80,15,1,79
,,,,,,,,,,,,,,,,,,,,,,,,,,,,,,,,,,,,,,,,,,,,,120,cama,Catalan,Sounds/cat_cama.mp3,2020-06-16_12h01.52.352,TranslationElicitation_spa,3.2.4,Win32,60,5ee3ddcd3f9ded0c586a8edf,,1,0,80,15,1,79
,,,,,,,,,,,,,,,,,,,,,,,,,,,,,,,,,,,s,3.180000067,S,FALSE,,,,,,,176,samarreta,Catalan,Sounds/cat_samarreta.mp3,2020-06-16_12h01.52.352,TranslationElicitation_spa,3.2.4,Win32,60,5ee3ddcd3f9ded0c586a8edf,,1,0,80,68,1,79
,,,,,,,,,,,,,,,,,,,,,,,,,,,,,,,,,,,a,3.592000008,SA,FALSE,,,,,,,176,samarreta,Catalan,Sounds/cat_samarreta.mp3,2020-06-16_12h01.52.352,TranslationElicitation_spa,3.2.4,Win32,60,5ee3ddcd3f9ded0c586a8edf,,1,0,80,68,1,79
,,,,,,,,,,,,,,,,,,,,,,,,,,,,,,,,,,,a,3.747999907,SAA,FALSE,,,,,,,176,samarreta,Catalan,Sounds/cat_samarreta.mp3,2020-06-16_12h01.52.352,TranslationElicitation_spa,3.2.4,Win32,60,5ee3ddcd3f9ded0c586a8edf,,1,0,80,68,1,79
,,,,,,,,,,,,,,,,,,,,,,,,,,,,,,,,,,,r,3.897000074,SAAR,FALSE,,,,,,,176,samarreta,Catalan,Sounds/cat_samarreta.mp3,2020-06-16_12h01.52.352,TranslationElicitation_spa,3.2.4,Win32,60,5ee3ddcd3f9ded0c586a8edf,,1,0,80,68,1,79
,,,,,,,,,,,,,,,,,,,,,,,,,,,,,,,,,,,r,4.063999891,SAARR,FALSE,,,,,,,176,samarreta,Catalan,Sounds/cat_samarreta.mp3,2020-06-16_12h01.52.352,TranslationElicitation_spa,3.2.4,Win32,60,5ee3ddcd3f9ded0c586a8edf,,1,0,80,68,1,79
,,,,,,,,,,,,,,,,,,,,,,,,,,,,,,,,,,,t,4.612999916,SAARRT,FALSE,,,,,,,176,samarreta,Catalan,Sounds/cat_samarreta.mp3,2020-06-16_12h01.52.352,TranslationElicitation_spa,3.2.4,Win32,60,5ee3ddcd3f9ded0c586a8edf,,1,0,80,68,1,79
,,,,,,,,,,,,,,,,,,,,,,,,,,,,,,,,,,,backspace,4.996999979,SAAR,TRUE,,,,,,,176,samarreta,Catalan,Sounds/cat_samarreta.mp3,2020-06-16_12h01.52.352,TranslationElicitation_spa,3.2.4,Win32,60,5ee3ddcd3f9ded0c586a8edf,,1,0,80,68,1,79
,,,,,,,,,,,,,,,,,,,,,,,,,,,,,,,,,,,backspace,5.246000051,SA,TRUE,,,,,,,176,samarreta,Catalan,Sounds/cat_samarreta.mp3,2020-06-16_12h01.52.352,TranslationElicitation_spa,3.2.4,Win32,60,5ee3ddcd3f9ded0c586a8edf,,1,0,80,68,1,79
,,,,,,,,,,,,,,,,,,,,,,,,,,,,,,,,,,,m,6.078999996,SAM,TRUE,,,,,,,176,samarreta,Catalan,Sounds/cat_samarreta.mp3,2020-06-16_12h01.52.352,TranslationElicitation_spa,3.2.4,Win32,60,5ee3ddcd3f9ded0c586a8edf,,1,0,80,68,1,79
,,,,,,,,,,,,,,,,,,,,,,,,,,,,,,,,,,,a,6.263999939,SAMA,TRUE,,,,,,,176,samarreta,Catalan,Sounds/cat_samarreta.mp3,2020-06-16_12h01.52.352,TranslationElicitation_spa,3.2.4,Win32,60,5ee3ddcd3f9ded0c586a8edf,,1,0,80,68,1,79
,,,,,,,,,,,,,,,,,,,,,,,,,,,,,,,,,,,r,6.895999908,SAMAR,TRUE,,,,,,,176,samarreta,Catalan,Sounds/cat_samarreta.mp3,2020-06-16_12h01.52.352,TranslationElicitation_spa,3.2.4,Win32,60,5ee3ddcd3f9ded0c586a8edf,,1,0,80,68,1,79
,,,,,,,,,,,,,,,,,,,,,,,,,,,,,,,,,,,r,7.029000044,SAMARR,TRUE,,,,,,,176,samarreta,Catalan,Sounds/cat_samarreta.mp3,2020-06-16_12h01.52.352,TranslationElicitation_spa,3.2.4,Win32,60,5ee3ddcd3f9ded0c586a8edf,,1,0,80,68,1,79
,,,,,,,,,,,,,,,,,,,,,,,,,,,,,,,,,,,e,7.364000082,SAMARRE,TRUE,,,,,,,176,samarreta,Catalan,Sounds/cat_samarreta.mp3,2020-06-16_12h01.52.352,TranslationElicitation_spa,3.2.4,Win32,60,5ee3ddcd3f9ded0c586a8edf,,1,0,80,68,1,79
,,,,,,,,,,,,,,,,,,,,,,,,,,,,,,,,,,,t,7.562000036,SAMARRET,TRUE,,,,,,,176,samarreta,Catalan,Sounds/cat_samarreta.mp3,2020-06-16_12h01.52.352,TranslationElicitation_spa,3.2.4,Win32,60,5ee3ddcd3f9ded0c586a8edf,,1,0,80,68,1,79
,,,,,,,,,,,,,,,,,,,,,,,,,,,,,,,,,,,a,7.812999964,SAMARRETA,TRUE,,,,,,,176,samarreta,Catalan,Sounds/cat_samarreta.mp3,2020-06-16_12h01.52.352,TranslationElicitation_spa,3.2.4,Win32,60,5ee3ddcd3f9ded0c586a8edf,,1,0,80,68,1,79
,,,,,,,,,,,,,,,,,,,,,,,,,,,,,,,,,,,return,8.246999979,,TRUE,,,,,,,176,samarreta,Catalan,Sounds/cat_samarreta.mp3,2020-06-16_12h01.52.352,TranslationElicitation_spa,3.2.4,Win32,60,5ee3ddcd3f9ded0c586a8edf,8.246999979,1,0,80,68,1,79
,,,,,,,,,,,,,,,,,,,,,,,,,,,,,,,,,,,,,,,,,,,,,176,samarreta,Catalan,Sounds/cat_samarreta.mp3,2020-06-16_12h01.52.352,TranslationElicitation_spa,3.2.4,Win32,60,5ee3ddcd3f9ded0c586a8edf,,1,0,80,68,1,79
,,,,,,,,,,,,,,,,,,,,,,,,,,,,,,,,,,,m,2.228000164,M,FALSE,,,,,,,157,mussol,Catalan,Sounds/cat_mussol.mp3,2020-06-16_12h01.52.352,TranslationElicitation_spa,3.2.4,Win32,60,5ee3ddcd3f9ded0c586a8edf,,1,0,80,51,1,79
,,,,,,,,,,,,,,,,,,,,,,,,,,,,,,,,,,,u,2.493999958,MU,FALSE,,,,,,,157,mussol,Catalan,Sounds/cat_mussol.mp3,2020-06-16_12h01.52.352,TranslationElicitation_spa,3.2.4,Win32,60,5ee3ddcd3f9ded0c586a8edf,,1,0,80,51,1,79
,,,,,,,,,,,,,,,,,,,,,,,,,,,,,,,,,,,s,2.677999973,MUS,FALSE,,,,,,,157,mussol,Catalan,Sounds/cat_mussol.mp3,2020-06-16_12h01.52.352,TranslationElicitation_spa,3.2.4,Win32,60,5ee3ddcd3f9ded0c586a8edf,,1,0,80,51,1,79
,,,,,,,,,,,,,,,,,,,,,,,,,,,,,,,,,,,e,2.828000069,MUSE,FALSE,,,,,,,157,mussol,Catalan,Sounds/cat_mussol.mp3,2020-06-16_12h01.52.352,TranslationElicitation_spa,3.2.4,Win32,60,5ee3ddcd3f9ded0c586a8edf,,1,0,80,51,1,79
,,,,,,,,,,,,,,,,,,,,,,,,,,,,,,,,,,,o,4.128999949,MUSEO,FALSE,,,,,,,157,mussol,Catalan,Sounds/cat_mussol.mp3,2020-06-16_12h01.52.352,TranslationElicitation_spa,3.2.4,Win32,60,5ee3ddcd3f9ded0c586a8edf,,1,0,80,51,1,79
,,,,,,,,,,,,,,,,,,,,,,,,,,,,,,,,,,,return,4.56400013,,FALSE,,,,,,,157,mussol,Catalan,Sounds/cat_mussol.mp3,2020-06-16_12h01.52.352,TranslationElicitation_spa,3.2.4,Win32,60,5ee3ddcd3f9ded0c586a8edf,4.56400013,1,0,80,51,1,79
,,,,,,,,,,,,,,,,,,,,,,,,,,,,,,,,,,,,,,,,,,,,,157,mussol,Catalan,Sounds/cat_mussol.mp3,2020-06-16_12h01.52.352,TranslationElicitation_spa,3.2.4,Win32,60,5ee3ddcd3f9ded0c586a8edf,,1,0,80,51,1,79
,,,,,,,,,,,,,,,,,,,,,,,,,,,,,,,,,,,a,2.213999987,A,FALSE,,,,,,,138,galeta,Catalan,Sounds/cat_galeta.mp3,2020-06-16_12h01.52.352,TranslationElicitation_spa,3.2.4,Win32,60,5ee3ddcd3f9ded0c586a8edf,,1,0,80,33,1,79
,,,,,,,,,,,,,,,,,,,,,,,,,,,,,,,,,,,l,2.414000034,AL,FALSE,,,,,,,138,galeta,Catalan,Sounds/cat_galeta.mp3,2020-06-16_12h01.52.352,TranslationElicitation_spa,3.2.4,Win32,60,5ee3ddcd3f9ded0c586a8edf,,1,0,80,33,1,79
,,,,,,,,,,,,,,,,,,,,,,,,,,,,,,,,,,,e,2.58100009,ALE,FALSE,,,,,,,138,galeta,Catalan,Sounds/cat_galeta.mp3,2020-06-16_12h01.52.352,TranslationElicitation_spa,3.2.4,Win32,60,5ee3ddcd3f9ded0c586a8edf,,1,0,80,33,1,79
,,,,,,,,,,,,,,,,,,,,,,,,,,,,,,,,,,,t,2.81400013,ALET,FALSE,,,,,,,138,galeta,Catalan,Sounds/cat_galeta.mp3,2020-06-16_12h01.52.352,TranslationElicitation_spa,3.2.4,Win32,60,5ee3ddcd3f9ded0c586a8edf,,1,0,80,33,1,79
,,,,,,,,,,,,,,,,,,,,,,,,,,,,,,,,,,,a,3.213999987,ALETA,FALSE,,,,,,,138,galeta,Catalan,Sounds/cat_galeta.mp3,2020-06-16_12h01.52.352,TranslationElicitation_spa,3.2.4,Win32,60,5ee3ddcd3f9ded0c586a8edf,,1,0,80,33,1,79
,,,,,,,,,,,,,,,,,,,,,,,,,,,,,,,,,,,return,3.494000196,,FALSE,,,,,,,138,galeta,Catalan,Sounds/cat_galeta.mp3,2020-06-16_12h01.52.352,TranslationElicitation_spa,3.2.4,Win32,60,5ee3ddcd3f9ded0c586a8edf,3.494000196,1,0,80,33,1,79
,,,,,,,,,,,,,,,,,,,,,,,,,,,,,,,,,,,,,,,,,,,,,138,galeta,Catalan,Sounds/cat_galeta.mp3,2020-06-16_12h01.52.352,TranslationElicitation_spa,3.2.4,Win32,60,5ee3ddcd3f9ded0c586a8edf,,1,0,80,33,1,79
,,,,,,,,,,,,,,,,,,,,,,,,,,,,,,,,,,,t,2.015000105,T,FALSE,,,,,,,183,tren,Catalan,Sounds/cat_tren.mp3,2020-06-16_12h01.52.352,TranslationElicitation_spa,3.2.4,Win32,60,5ee3ddcd3f9ded0c586a8edf,,1,0,80,74,1,79
,,,,,,,,,,,,,,,,,,,,,,,,,,,,,,,,,,,r,2.247999907,TR,FALSE,,,,,,,183,tren,Catalan,Sounds/cat_tren.mp3,2020-06-16_12h01.52.352,TranslationElicitation_spa,3.2.4,Win32,60,5ee3ddcd3f9ded0c586a8edf,,1,0,80,74,1,79
,,,,,,,,,,,,,,,,,,,,,,,,,,,,,,,,,,,e,2.381999969,TRE,FALSE,,,,,,,183,tren,Catalan,Sounds/cat_tren.mp3,2020-06-16_12h01.52.352,TranslationElicitation_spa,3.2.4,Win32,60,5ee3ddcd3f9ded0c586a8edf,,1,0,80,74,1,79
,,,,,,,,,,,,,,,,,,,,,,,,,,,,,,,,,,,n,2.61500001,TREN,FALSE,,,,,,,183,tren,Catalan,Sounds/cat_tren.mp3,2020-06-16_12h01.52.352,TranslationElicitation_spa,3.2.4,Win32,60,5ee3ddcd3f9ded0c586a8edf,,1,0,80,74,1,79
,,,,,,,,,,,,,,,,,,,,,,,,,,,,,,,,,,,return,3.634000063,,FALSE,,,,,,,183,tren,Catalan,Sounds/cat_tren.mp3,2020-06-16_12h01.52.352,TranslationElicitation_spa,3.2.4,Win32,60,5ee3ddcd3f9ded0c586a8edf,3.634000063,1,0,80,74,1,79
,,,,,,,,,,,,,,,,,,,,,,,,,,,,,,,,,,,,,,,,,,,,,183,tren,Catalan,Sounds/cat_tren.mp3,2020-06-16_12h01.52.352,TranslationElicitation_spa,3.2.4,Win32,60,5ee3ddcd3f9ded0c586a8edf,,1,0,80,74,1,79
,,,,,,,,,,,,,,,,,,,,,,,,,,,,,,,,,,,c,2.092000008,C,FALSE,,,,,,,122,casa,Catalan,Sounds/cat_casa.mp3,2020-06-16_12h01.52.352,TranslationElicitation_spa,3.2.4,Win32,60,5ee3ddcd3f9ded0c586a8edf,,1,0,80,17,1,79
,,,,,,,,,,,,,,,,,,,,,,,,,,,,,,,,,,,a,2.559000015,CA,FALSE,,,,,,,122,casa,Catalan,Sounds/cat_casa.mp3,2020-06-16_12h01.52.352,TranslationElicitation_spa,3.2.4,Win32,60,5ee3ddcd3f9ded0c586a8edf,,1,0,80,17,1,79
,,,,,,,,,,,,,,,,,,,,,,,,,,,,,,,,,,,s,2.671000004,CAS,FALSE,,,,,,,122,casa,Catalan,Sounds/cat_casa.mp3,2020-06-16_12h01.52.352,TranslationElicitation_spa,3.2.4,Win32,60,5ee3ddcd3f9ded0c586a8edf,,1,0,80,17,1,79
,,,,,,,,,,,,,,,,,,,,,,,,,,,,,,,,,,,a,2.874000072,CASA,FALSE,,,,,,,122,casa,Catalan,Sounds/cat_casa.mp3,2020-06-16_12h01.52.352,TranslationElicitation_spa,3.2.4,Win32,60,5ee3ddcd3f9ded0c586a8edf,,1,0,80,17,1,79
,,,,,,,,,,,,,,,,,,,,,,,,,,,,,,,,,,,return,3.111999989,,FALSE,,,,,,,122,casa,Catalan,Sounds/cat_casa.mp3,2020-06-16_12h01.52.352,TranslationElicitation_spa,3.2.4,Win32,60,5ee3ddcd3f9ded0c586a8edf,3.111999989,1,0,80,17,1,79
,,,,,,,,,,,,,,,,,,,,,,,,,,,,,,,,,,,,,,,,,,,,,122,casa,Catalan,Sounds/cat_casa.mp3,2020-06-16_12h01.52.352,TranslationElicitation_spa,3.2.4,Win32,60,5ee3ddcd3f9ded0c586a8edf,,1,0,80,17,1,79
,,,,,,,,,,,,,,,,,,,,,,,,,,,,,,,,,,,a,2.733999968,A,FALSE,,,,,,,162,pa,Catalan,Sounds/cat_pa.mp3,2020-06-16_12h01.52.352,TranslationElicitation_spa,3.2.4,Win32,60,5ee3ddcd3f9ded0c586a8edf,,1,0,80,55,1,79
,,,,,,,,,,,,,,,,,,,,,,,,,,,,,,,,,,,h,2.861999989,AH,FALSE,,,,,,,162,pa,Catalan,Sounds/cat_pa.mp3,2020-06-16_12h01.52.352,TranslationElicitation_spa,3.2.4,Win32,60,5ee3ddcd3f9ded0c586a8edf,,1,0,80,55,1,79
,,,,,,,,,,,,,,,,,,,,,,,,,,,,,,,,,,,return,4.378999949,,FALSE,,,,,,,162,pa,Catalan,Sounds/cat_pa.mp3,2020-06-16_12h01.52.352,TranslationElicitation_spa,3.2.4,Win32,60,5ee3ddcd3f9ded0c586a8edf,4.378999949,1,0,80,55,1,79
,,,,,,,,,,,,,,,,,,,,,,,,,,,,,,,,,,,,,,,,,,,,,162,pa,Catalan,Sounds/cat_pa.mp3,2020-06-16_12h01.52.352,TranslationElicitation_spa,3.2.4,Win32,60,5ee3ddcd3f9ded0c586a8edf,,1,0,80,55,1,79
,,,,,,,,,,,,,,,,,,,,,,,,,,,,,,,,,,,b,2.403000116,B,FALSE,,,,,,,113,boca,Catalan,Sounds/cat_boca.mp3,2020-06-16_12h01.52.352,TranslationElicitation_spa,3.2.4,Win32,60,5ee3ddcd3f9ded0c586a8edf,,1,0,80,8,1,79
,,,,,,,,,,,,,,,,,,,,,,,,,,,,,,,,,,,o,2.637000084,BO,FALSE,,,,,,,113,boca,Catalan,Sounds/cat_boca.mp3,2020-06-16_12h01.52.352,TranslationElicitation_spa,3.2.4,Win32,60,5ee3ddcd3f9ded0c586a8edf,,1,0,80,8,1,79
,,,,,,,,,,,,,,,,,,,,,,,,,,,,,,,,,,,c,2.893000126,BOC,FALSE,,,,,,,113,boca,Catalan,Sounds/cat_boca.mp3,2020-06-16_12h01.52.352,TranslationElicitation_spa,3.2.4,Win32,60,5ee3ddcd3f9ded0c586a8edf,,1,0,80,8,1,79
,,,,,,,,,,,,,,,,,,,,,,,,,,,,,,,,,,,a,3.130000114,BOCA,FALSE,,,,,,,113,boca,Catalan,Sounds/cat_boca.mp3,2020-06-16_12h01.52.352,TranslationElicitation_spa,3.2.4,Win32,60,5ee3ddcd3f9ded0c586a8edf,,1,0,80,8,1,79
,,,,,,,,,,,,,,,,,,,,,,,,,,,,,,,,,,,return,4.287000179,,FALSE,,,,,,,113,boca,Catalan,Sounds/cat_boca.mp3,2020-06-16_12h01.52.352,TranslationElicitation_spa,3.2.4,Win32,60,5ee3ddcd3f9ded0c586a8edf,4.287000179,1,0,80,8,1,79
,,,,,,,,,,,,,,,,,,,,,,,,,,,,,,,,,,,,,,,,,,,,,113,boca,Catalan,Sounds/cat_boca.mp3,2020-06-16_12h01.52.352,TranslationElicitation_spa,3.2.4,Win32,60,5ee3ddcd3f9ded0c586a8edf,,1,0,80,8,1,79
,,,,,,,,,,,,,,,,,,,,,,,,,,,,,,,,,,,h,2.963999987,H,FALSE,,,,,,,136,forquilla,Catalan,Sounds/cat_forquilla.mp3,2020-06-16_12h01.52.352,TranslationElicitation_spa,3.2.4,Win32,60,5ee3ddcd3f9ded0c586a8edf,,1,0,80,31,1,79
,,,,,,,,,,,,,,,,,,,,,,,,,,,,,,,,,,,o,3.164000034,HO,FALSE,,,,,,,136,forquilla,Catalan,Sounds/cat_forquilla.mp3,2020-06-16_12h01.52.352,TranslationElicitation_spa,3.2.4,Win32,60,5ee3ddcd3f9ded0c586a8edf,,1,0,80,31,1,79
,,,,,,,,,,,,,,,,,,,,,,,,,,,,,,,,,,,r,3.414000034,HOR,FALSE,,,,,,,136,forquilla,Catalan,Sounds/cat_forquilla.mp3,2020-06-16_12h01.52.352,TranslationElicitation_spa,3.2.4,Win32,60,5ee3ddcd3f9ded0c586a8edf,,1,0,80,31,1,79
,,,,,,,,,,,,,,,,,,,,,,,,,,,,,,,,,,,q,3.914000034,HORQ,FALSE,,,,,,,136,forquilla,Catalan,Sounds/cat_forquilla.mp3,2020-06-16_12h01.52.352,TranslationElicitation_spa,3.2.4,Win32,60,5ee3ddcd3f9ded0c586a8edf,,1,0,80,31,1,79
,,,,,,,,,,,,,,,,,,,,,,,,,,,,,,,,,,,u,4.029999971,HORQU,FALSE,,,,,,,136,forquilla,Catalan,Sounds/cat_forquilla.mp3,2020-06-16_12h01.52.352,TranslationElicitation_spa,3.2.4,Win32,60,5ee3ddcd3f9ded0c586a8edf,,1,0,80,31,1,79
,,,,,,,,,,,,,,,,,,,,,,,,,,,,,,,,,,,i,4.213999987,HORQUI,FALSE,,,,,,,136,forquilla,Catalan,Sounds/cat_forquilla.mp3,2020-06-16_12h01.52.352,TranslationElicitation_spa,3.2.4,Win32,60,5ee3ddcd3f9ded0c586a8edf,,1,0,80,31,1,79
,,,,,,,,,,,,,,,,,,,,,,,,,,,,,,,,,,,l,4.447000027,HORQUIL,FALSE,,,,,,,136,forquilla,Catalan,Sounds/cat_forquilla.mp3,2020-06-16_12h01.52.352,TranslationElicitation_spa,3.2.4,Win32,60,5ee3ddcd3f9ded0c586a8edf,,1,0,80,31,1,79
,,,,,,,,,,,,,,,,,,,,,,,,,,,,,,,,,,,l,4.597000122,HORQUILL,FALSE,,,,,,,136,forquilla,Catalan,Sounds/cat_forquilla.mp3,2020-06-16_12h01.52.352,TranslationElicitation_spa,3.2.4,Win32,60,5ee3ddcd3f9ded0c586a8edf,,1,0,80,31,1,79
,,,,,,,,,,,,,,,,,,,,,,,,,,,,,,,,,,,a,4.934999943,HORQUILLA,FALSE,,,,,,,136,forquilla,Catalan,Sounds/cat_forquilla.mp3,2020-06-16_12h01.52.352,TranslationElicitation_spa,3.2.4,Win32,60,5ee3ddcd3f9ded0c586a8edf,,1,0,80,31,1,79
,,,,,,,,,,,,,,,,,,,,,,,,,,,,,,,,,,,return,5.482000113,,FALSE,,,,,,,136,forquilla,Catalan,Sounds/cat_forquilla.mp3,2020-06-16_12h01.52.352,TranslationElicitation_spa,3.2.4,Win32,60,5ee3ddcd3f9ded0c586a8edf,5.482000113,1,0,80,31,1,79
,,,,,,,,,,,,,,,,,,,,,,,,,,,,,,,,,,,,,,,,,,,,,136,forquilla,Catalan,Sounds/cat_forquilla.mp3,2020-06-16_12h01.52.352,TranslationElicitation_spa,3.2.4,Win32,60,5ee3ddcd3f9ded0c586a8edf,,1,0,80,31,1,79
,,,,,,,,,,,,,,,,,,,,,,,,,,,,,,,,,,,y,3.997999907,Y,FALSE,,,,,,,148,lleo,Catalan,Sounds/cat_lleo.mp3,2020-06-16_12h01.52.352,TranslationElicitation_spa,3.2.4,Win32,60,5ee3ddcd3f9ded0c586a8edf,,1,0,80,42,1,79
,,,,,,,,,,,,,,,,,,,,,,,,,,,,,,,,,,,a,4.148000002,YA,FALSE,,,,,,,148,lleo,Catalan,Sounds/cat_lleo.mp3,2020-06-16_12h01.52.352,TranslationElicitation_spa,3.2.4,Win32,60,5ee3ddcd3f9ded0c586a8edf,,1,0,80,42,1,79
,,,,,,,,,,,,,,,,,,,,,,,,,,,,,,,,,,,o,4.414000034,YAO,FALSE,,,,,,,148,lleo,Catalan,Sounds/cat_lleo.mp3,2020-06-16_12h01.52.352,TranslationElicitation_spa,3.2.4,Win32,60,5ee3ddcd3f9ded0c586a8edf,,1,0,80,42,1,79
,,,,,,,,,,,,,,,,,,,,,,,,,,,,,,,,,,,return,9.369999886,,FALSE,,,,,,,148,lleo,Catalan,Sounds/cat_lleo.mp3,2020-06-16_12h01.52.352,TranslationElicitation_spa,3.2.4,Win32,60,5ee3ddcd3f9ded0c586a8edf,9.369999886,1,0,80,42,1,79
,,,,,,,,,,,,,,,,,,,,,,,,,,,,,,,,,,,,,,,,,,,,,148,lleo,Catalan,Sounds/cat_lleo.mp3,2020-06-16_12h01.52.352,TranslationElicitation_spa,3.2.4,Win32,60,5ee3ddcd3f9ded0c586a8edf,,1,0,80,42,1,79
,,,,,,,,,,,,,,,,,,,,,,,,,,,,,,,,,,,d,3.179000139,D,FALSE,,,,,,,129,dit,Catalan,Sounds/cat_dit.mp3,2020-06-16_12h01.52.352,TranslationElicitation_spa,3.2.4,Win32,60,5ee3ddcd3f9ded0c586a8edf,,1,0,80,24,1,79
,,,,,,,,,,,,,,,,,,,,,,,,,,,,,,,,,,,i,3.328000069,DI,FALSE,,,,,,,129,dit,Catalan,Sounds/cat_dit.mp3,2020-06-16_12h01.52.352,TranslationElicitation_spa,3.2.4,Win32,60,5ee3ddcd3f9ded0c586a8edf,,1,0,80,24,1,79
,,,,,,,,,,,,,,,,,,,,,,,,,,,,,,,,,,,a,3.512000084,DIA,FALSE,,,,,,,129,dit,Catalan,Sounds/cat_dit.mp3,2020-06-16_12h01.52.352,TranslationElicitation_spa,3.2.4,Win32,60,5ee3ddcd3f9ded0c586a8edf,,1,0,80,24,1,79
,,,,,,,,,,,,,,,,,,,,,,,,,,,,,,,,,,,return,4.260999918,,FALSE,,,,,,,129,dit,Catalan,Sounds/cat_dit.mp3,2020-06-16_12h01.52.352,TranslationElicitation_spa,3.2.4,Win32,60,5ee3ddcd3f9ded0c586a8edf,4.260999918,1,0,80,24,1,79
,,,,,,,,,,,,,,,,,,,,,,,,,,,,,,,,,,,,,,,,,,,,,129,dit,Catalan,Sounds/cat_dit.mp3,2020-06-16_12h01.52.352,TranslationElicitation_spa,3.2.4,Win32,60,5ee3ddcd3f9ded0c586a8edf,,1,0,80,24,1,79
,,,,,,,,,,,,,,,,,,,,,,,,,,,,,,,,,,,b,3.114000082,B,FALSE,,,,,,,187,vaixell,Catalan,Sounds/cat_vaixell.mp3,2020-06-16_12h01.52.352,TranslationElicitation_spa,3.2.4,Win32,60,5ee3ddcd3f9ded0c586a8edf,,1,0,80,77,1,79
,,,,,,,,,,,,,,,,,,,,,,,,,,,,,,,,,,,a,3.680999994,BA,FALSE,,,,,,,187,vaixell,Catalan,Sounds/cat_vaixell.mp3,2020-06-16_12h01.52.352,TranslationElicitation_spa,3.2.4,Win32,60,5ee3ddcd3f9ded0c586a8edf,,1,0,80,77,1,79
,,,,,,,,,,,,,,,,,,,,,,,,,,,,,,,,,,,s,3.916000128,BAS,FALSE,,,,,,,187,vaixell,Catalan,Sounds/cat_vaixell.mp3,2020-06-16_12h01.52.352,TranslationElicitation_spa,3.2.4,Win32,60,5ee3ddcd3f9ded0c586a8edf,,1,0,80,77,1,79
,,,,,,,,,,,,,,,,,,,,,,,,,,,,,,,,,,,e,7.030999899,BASE,FALSE,,,,,,,187,vaixell,Catalan,Sounds/cat_vaixell.mp3,2020-06-16_12h01.52.352,TranslationElicitation_spa,3.2.4,Win32,60,5ee3ddcd3f9ded0c586a8edf,,1,0,80,77,1,79
,,,,,,,,,,,,,,,,,,,,,,,,,,,,,,,,,,,return,7.83100009,,FALSE,,,,,,,187,vaixell,Catalan,Sounds/cat_vaixell.mp3,2020-06-16_12h01.52.352,TranslationElicitation_spa,3.2.4,Win32,60,5ee3ddcd3f9ded0c586a8edf,7.83100009,1,0,80,77,1,79
,,,,,,,,,,,,,,,,,,,,,,,,,,,,,,,,,,,,,,,,,,,,,187,vaixell,Catalan,Sounds/cat_vaixell.mp3,2020-06-16_12h01.52.352,TranslationElicitation_spa,3.2.4,Win32,60,5ee3ddcd3f9ded0c586a8edf,,1,0,80,77,1,79
,,,,,,,,,,,,,,,,,,,,,,,,,,,,,,,,,,,u,3.148000002,U,FALSE,,,,,,,184,ull,Catalan,Sounds/cat_ull.mp3,2020-06-16_12h01.52.352,TranslationElicitation_spa,3.2.4,Win32,60,5ee3ddcd3f9ded0c586a8edf,,1,0,80,75,1,79
,,,,,,,,,,,,,,,,,,,,,,,,,,,,,,,,,,,l,4.292999983,UL,FALSE,,,,,,,184,ull,Catalan,Sounds/cat_ull.mp3,2020-06-16_12h01.52.352,TranslationElicitation_spa,3.2.4,Win32,60,5ee3ddcd3f9ded0c586a8edf,,1,0,80,75,1,79
,,,,,,,,,,,,,,,,,,,,,,,,,,,,,,,,,,,return,5.277999878,,FALSE,,,,,,,184,ull,Catalan,Sounds/cat_ull.mp3,2020-06-16_12h01.52.352,TranslationElicitation_spa,3.2.4,Win32,60,5ee3ddcd3f9ded0c586a8edf,5.277999878,1,0,80,75,1,79
,,,,,,,,,,,,,,,,,,,,,,,,,,,,,,,,,,,,,,,,,,,,,184,ull,Catalan,Sounds/cat_ull.mp3,2020-06-16_12h01.52.352,TranslationElicitation_spa,3.2.4,Win32,60,5ee3ddcd3f9ded0c586a8edf,,1,0,80,75,1,79
,,,,,,,,,,,,,,,,,,,,,,,,,,,,,,,,,,,h,3.769000053,H,FALSE,,,,,,,165,pernil,Catalan,Sounds/cat_pernil.mp3,2020-06-16_12h01.52.352,TranslationElicitation_spa,3.2.4,Win32,60,5ee3ddcd3f9ded0c586a8edf,,1,0,80,58,1,79
,,,,,,,,,,,,,,,,,,,,,,,,,,,,,,,,,,,r,3.881999969,HR,FALSE,,,,,,,165,pernil,Catalan,Sounds/cat_pernil.mp3,2020-06-16_12h01.52.352,TranslationElicitation_spa,3.2.4,Win32,60,5ee3ddcd3f9ded0c586a8edf,,1,0,80,58,1,79
,,,,,,,,,,,,,,,,,,,,,,,,,,,,,,,,,,,m,4.09800005,HRM,FALSE,,,,,,,165,pernil,Catalan,Sounds/cat_pernil.mp3,2020-06-16_12h01.52.352,TranslationElicitation_spa,3.2.4,Win32,60,5ee3ddcd3f9ded0c586a8edf,,1,0,80,58,1,79
,,,,,,,,,,,,,,,,,,,,,,,,,,,,,,,,,,,i,4.308000088,HRMI,FALSE,,,,,,,165,pernil,Catalan,Sounds/cat_pernil.mp3,2020-06-16_12h01.52.352,TranslationElicitation_spa,3.2.4,Win32,60,5ee3ddcd3f9ded0c586a8edf,,1,0,80,58,1,79
,,,,,,,,,,,,,,,,,,,,,,,,,,,,,,,,,,,g,4.705000162,HRMIG,FALSE,,,,,,,165,pernil,Catalan,Sounds/cat_pernil.mp3,2020-06-16_12h01.52.352,TranslationElicitation_spa,3.2.4,Win32,60,5ee3ddcd3f9ded0c586a8edf,,1,0,80,58,1,79
,,,,,,,,,,,,,,,,,,,,,,,,,,,,,,,,,,,backspace,5.653000116,HRM,TRUE,,,,,,,165,pernil,Catalan,Sounds/cat_pernil.mp3,2020-06-16_12h01.52.352,TranslationElicitation_spa,3.2.4,Win32,60,5ee3ddcd3f9ded0c586a8edf,,1,0,80,58,1,79
,,,,,,,,,,,,,,,,,,,,,,,,,,,,,,,,,,,backspace,5.891000032,H,TRUE,,,,,,,165,pernil,Catalan,Sounds/cat_pernil.mp3,2020-06-16_12h01.52.352,TranslationElicitation_spa,3.2.4,Win32,60,5ee3ddcd3f9ded0c586a8edf,,1,0,80,58,1,79
,,,,,,,,,,,,,,,,,,,,,,,,,,,,,,,,,,,r,6.886000156,HR,TRUE,,,,,,,165,pernil,Catalan,Sounds/cat_pernil.mp3,2020-06-16_12h01.52.352,TranslationElicitation_spa,3.2.4,Win32,60,5ee3ddcd3f9ded0c586a8edf,,1,0,80,58,1,79
,,,,,,,,,,,,,,,,,,,,,,,,,,,,,,,,,,,m,7.036000013,HRM,TRUE,,,,,,,165,pernil,Catalan,Sounds/cat_pernil.mp3,2020-06-16_12h01.52.352,TranslationElicitation_spa,3.2.4,Win32,60,5ee3ddcd3f9ded0c586a8edf,,1,0,80,58,1,79
,,,,,,,,,,,,,,,,,,,,,,,,,,,,,,,,,,,i,7.269999981,HRMI,TRUE,,,,,,,165,pernil,Catalan,Sounds/cat_pernil.mp3,2020-06-16_12h01.52.352,TranslationElicitation_spa,3.2.4,Win32,60,5ee3ddcd3f9ded0c586a8edf,,1,0,80,58,1,79
,,,,,,,,,,,,,,,,,,,,,,,,,,,,,,,,,,,g,7.403000116,HRMIG,TRUE,,,,,,,165,pernil,Catalan,Sounds/cat_pernil.mp3,2020-06-16_12h01.52.352,TranslationElicitation_spa,3.2.4,Win32,60,5ee3ddcd3f9ded0c586a8edf,,1,0,80,58,1,79
,,,,,,,,,,,,,,,,,,,,,,,,,,,,,,,,,,,backspace,8.065000057,HRM,TRUE,,,,,,,165,pernil,Catalan,Sounds/cat_pernil.mp3,2020-06-16_12h01.52.352,TranslationElicitation_spa,3.2.4,Win32,60,5ee3ddcd3f9ded0c586a8edf,,1,0,80,58,1,79
,,,,,,,,,,,,,,,,,,,,,,,,,,,,,,,,,,,backspace,8.263000011,H,TRUE,,,,,,,165,pernil,Catalan,Sounds/cat_pernil.mp3,2020-06-16_12h01.52.352,TranslationElicitation_spa,3.2.4,Win32,60,5ee3ddcd3f9ded0c586a8edf,,1,0,80,58,1,79
,,,,,,,,,,,,,,,,,,,,,,,,,,,,,,,,,,,backspace,8.460000038,,TRUE,,,,,,,165,pernil,Catalan,Sounds/cat_pernil.mp3,2020-06-16_12h01.52.352,TranslationElicitation_spa,3.2.4,Win32,60,5ee3ddcd3f9ded0c586a8edf,,1,0,80,58,1,79
,,,,,,,,,,,,,,,,,,,,,,,,,,,,,,,,,,,h,9.647000074,H,TRUE,,,,,,,165,pernil,Catalan,Sounds/cat_pernil.mp3,2020-06-16_12h01.52.352,TranslationElicitation_spa,3.2.4,Win32,60,5ee3ddcd3f9ded0c586a8edf,,1,0,80,58,1,79
,,,,,,,,,,,,,,,,,,,,,,,,,,,,,,,,,,,o,9.914000034,HO,TRUE,,,,,,,165,pernil,Catalan,Sounds/cat_pernil.mp3,2020-06-16_12h01.52.352,TranslationElicitation_spa,3.2.4,Win32,60,5ee3ddcd3f9ded0c586a8edf,,1,0,80,58,1,79
,,,,,,,,,,,,,,,,,,,,,,,,,,,,,,,,,,,r,10.51999998,HOR,TRUE,,,,,,,165,pernil,Catalan,Sounds/cat_pernil.mp3,2020-06-16_12h01.52.352,TranslationElicitation_spa,3.2.4,Win32,60,5ee3ddcd3f9ded0c586a8edf,,1,0,80,58,1,79
,,,,,,,,,,,,,,,,,,,,,,,,,,,,,,,,,,,m,11.08000016,HORM,TRUE,,,,,,,165,pernil,Catalan,Sounds/cat_pernil.mp3,2020-06-16_12h01.52.352,TranslationElicitation_spa,3.2.4,Win32,60,5ee3ddcd3f9ded0c586a8edf,,1,0,80,58,1,79
,,,,,,,,,,,,,,,,,,,,,,,,,,,,,,,,,,,i,11.29700017,HORMI,TRUE,,,,,,,165,pernil,Catalan,Sounds/cat_pernil.mp3,2020-06-16_12h01.52.352,TranslationElicitation_spa,3.2.4,Win32,60,5ee3ddcd3f9ded0c586a8edf,,1,0,80,58,1,79
,,,,,,,,,,,,,,,,,,,,,,,,,,,,,,,,,,,g,11.56700015,HORMIG,TRUE,,,,,,,165,pernil,Catalan,Sounds/cat_pernil.mp3,2020-06-16_12h01.52.352,TranslationElicitation_spa,3.2.4,Win32,60,5ee3ddcd3f9ded0c586a8edf,,1,0,80,58,1,79
,,,,,,,,,,,,,,,,,,,,,,,,,,,,,,,,,,,a,12.06299996,HORMIGA,TRUE,,,,,,,165,pernil,Catalan,Sounds/cat_pernil.mp3,2020-06-16_12h01.52.352,TranslationElicitation_spa,3.2.4,Win32,60,5ee3ddcd3f9ded0c586a8edf,,1,0,80,58,1,79
,,,,,,,,,,,,,,,,,,,,,,,,,,,,,,,,,,,return,12.38000011,,TRUE,,,,,,,165,pernil,Catalan,Sounds/cat_pernil.mp3,2020-06-16_12h01.52.352,TranslationElicitation_spa,3.2.4,Win32,60,5ee3ddcd3f9ded0c586a8edf,12.38000011,1,0,80,58,1,79
,,,,,,,,,,,,,,,,,,,,,,,,,,,,,,,,,,,,,,,,,,,,,165,pernil,Catalan,Sounds/cat_pernil.mp3,2020-06-16_12h01.52.352,TranslationElicitation_spa,3.2.4,Win32,60,5ee3ddcd3f9ded0c586a8edf,,1,0,80,58,1,79
,,,,,,,,,,,,,,,,,,,,,,,,,,,,,,,,,,,c,1.459000111,C,FALSE,,,,,,,123,cavall,Catalan,Sounds/cat_cavall.mp3,2020-06-16_12h01.52.352,TranslationElicitation_spa,3.2.4,Win32,60,5ee3ddcd3f9ded0c586a8edf,,1,0,80,18,1,79
,,,,,,,,,,,,,,,,,,,,,,,,,,,,,,,,,,,a,1.608999968,CA,FALSE,,,,,,,123,cavall,Catalan,Sounds/cat_cavall.mp3,2020-06-16_12h01.52.352,TranslationElicitation_spa,3.2.4,Win32,60,5ee3ddcd3f9ded0c586a8edf,,1,0,80,18,1,79
,,,,,,,,,,,,,,,,,,,,,,,,,,,,,,,,,,,b,1.959000111,CAB,FALSE,,,,,,,123,cavall,Catalan,Sounds/cat_cavall.mp3,2020-06-16_12h01.52.352,TranslationElicitation_spa,3.2.4,Win32,60,5ee3ddcd3f9ded0c586a8edf,,1,0,80,18,1,79
,,,,,,,,,,,,,,,,,,,,,,,,,,,,,,,,,,,a,2.161999941,CABA,FALSE,,,,,,,123,cavall,Catalan,Sounds/cat_cavall.mp3,2020-06-16_12h01.52.352,TranslationElicitation_spa,3.2.4,Win32,60,5ee3ddcd3f9ded0c586a8edf,,1,0,80,18,1,79
,,,,,,,,,,,,,,,,,,,,,,,,,,,,,,,,,,,l,2.803999901,CABAL,FALSE,,,,,,,123,cavall,Catalan,Sounds/cat_cavall.mp3,2020-06-16_12h01.52.352,TranslationElicitation_spa,3.2.4,Win32,60,5ee3ddcd3f9ded0c586a8edf,,1,0,80,18,1,79
,,,,,,,,,,,,,,,,,,,,,,,,,,,,,,,,,,,l,2.913000107,CABALL,FALSE,,,,,,,123,cavall,Catalan,Sounds/cat_cavall.mp3,2020-06-16_12h01.52.352,TranslationElicitation_spa,3.2.4,Win32,60,5ee3ddcd3f9ded0c586a8edf,,1,0,80,18,1,79
,,,,,,,,,,,,,,,,,,,,,,,,,,,,,,,,,,,o,3.079999924,CABALLO,FALSE,,,,,,,123,cavall,Catalan,Sounds/cat_cavall.mp3,2020-06-16_12h01.52.352,TranslationElicitation_spa,3.2.4,Win32,60,5ee3ddcd3f9ded0c586a8edf,,1,0,80,18,1,79
,,,,,,,,,,,,,,,,,,,,,,,,,,,,,,,,,,,return,3.464999914,,FALSE,,,,,,,123,cavall,Catalan,Sounds/cat_cavall.mp3,2020-06-16_12h01.52.352,TranslationElicitation_spa,3.2.4,Win32,60,5ee3ddcd3f9ded0c586a8edf,3.464999914,1,0,80,18,1,79
,,,,,,,,,,,,,,,,,,,,,,,,,,,,,,,,,,,,,,,,,,,,,123,cavall,Catalan,Sounds/cat_cavall.mp3,2020-06-16_12h01.52.352,TranslationElicitation_spa,3.2.4,Win32,60,5ee3ddcd3f9ded0c586a8edf,,1,0,80,18,1,79
,,,,,,,,,,,,,,,,,,,,,,,,,,,,,,,,,,,m,3.228999853,M,FALSE,,,,,,,153,mico,Catalan,Sounds/cat_mico.mp3,2020-06-16_12h01.52.352,TranslationElicitation_spa,3.2.4,Win32,60,5ee3ddcd3f9ded0c586a8edf,,1,0,80,47,1,79
,,,,,,,,,,,,,,,,,,,,,,,,,,,,,,,,,,,i,3.395999908,MI,FALSE,,,,,,,153,mico,Catalan,Sounds/cat_mico.mp3,2020-06-16_12h01.52.352,TranslationElicitation_spa,3.2.4,Win32,60,5ee3ddcd3f9ded0c586a8edf,,1,0,80,47,1,79
,,,,,,,,,,,,,,,,,,,,,,,,,,,,,,,,,,,c,7.828999996,MIC,FALSE,,,,,,,153,mico,Catalan,Sounds/cat_mico.mp3,2020-06-16_12h01.52.352,TranslationElicitation_spa,3.2.4,Win32,60,5ee3ddcd3f9ded0c586a8edf,,1,0,80,47,1,79
,,,,,,,,,,,,,,,,,,,,,,,,,,,,,,,,,,,u,8.294999838,MICU,FALSE,,,,,,,153,mico,Catalan,Sounds/cat_mico.mp3,2020-06-16_12h01.52.352,TranslationElicitation_spa,3.2.4,Win32,60,5ee3ddcd3f9ded0c586a8edf,,1,0,80,47,1,79
,,,,,,,,,,,,,,,,,,,,,,,,,,,,,,,,,,,return,9.095000029,,FALSE,,,,,,,153,mico,Catalan,Sounds/cat_mico.mp3,2020-06-16_12h01.52.352,TranslationElicitation_spa,3.2.4,Win32,60,5ee3ddcd3f9ded0c586a8edf,9.095000029,1,0,80,47,1,79
,,,,,,,,,,,,,,,,,,,,,,,,,,,,,,,,,,,,,,,,,,,,,153,mico,Catalan,Sounds/cat_mico.mp3,2020-06-16_12h01.52.352,TranslationElicitation_spa,3.2.4,Win32,60,5ee3ddcd3f9ded0c586a8edf,,1,0,80,47,1,79
,,,,,,,,,,,,,,,,,,,,,,,,,,,,,,,,,,,a,2.230999947,A,FALSE,,,,,,,152,ma,Catalan,Sounds/cat_ma.mp3,2020-06-16_12h01.52.352,TranslationElicitation_spa,3.2.4,Win32,60,5ee3ddcd3f9ded0c586a8edf,,1,0,80,46,1,79
,,,,,,,,,,,,,,,,,,,,,,,,,,,,,,,,,,,h,2.61500001,AH,FALSE,,,,,,,152,ma,Catalan,Sounds/cat_ma.mp3,2020-06-16_12h01.52.352,TranslationElicitation_spa,3.2.4,Win32,60,5ee3ddcd3f9ded0c586a8edf,,1,0,80,46,1,79
,,,,,,,,,,,,,,,,,,,,,,,,,,,,,,,,,,,return,3.697999954,,FALSE,,,,,,,152,ma,Catalan,Sounds/cat_ma.mp3,2020-06-16_12h01.52.352,TranslationElicitation_spa,3.2.4,Win32,60,5ee3ddcd3f9ded0c586a8edf,3.697999954,1,0,80,46,1,79
,,,,,,,,,,,,,,,,,,,,,,,,,,,,,,,,,,,,,,,,,,,,,152,ma,Catalan,Sounds/cat_ma.mp3,2020-06-16_12h01.52.352,TranslationElicitation_spa,3.2.4,Win32,60,5ee3ddcd3f9ded0c586a8edf,,1,0,80,46,1,79
,,,,,,,,,,,,,,,,,,,,,,,,,,,,,,,,,,,a,1.414999962,A,FALSE,,,,,,,104,abella,Catalan,Sounds/cat_abella.mp3,2020-06-16_12h01.52.352,TranslationElicitation_spa,3.2.4,Win32,60,5ee3ddcd3f9ded0c586a8edf,,1,0,80,0,1,79
,,,,,,,,,,,,,,,,,,,,,,,,,,,,,,,,,,,b,2.014999866,AB,FALSE,,,,,,,104,abella,Catalan,Sounds/cat_abella.mp3,2020-06-16_12h01.52.352,TranslationElicitation_spa,3.2.4,Win32,60,5ee3ddcd3f9ded0c586a8edf,,1,0,80,0,1,79
,,,,,,,,,,,,,,,,,,,,,,,,,,,,,,,,,,,e,2.36500001,ABE,FALSE,,,,,,,104,abella,Catalan,Sounds/cat_abella.mp3,2020-06-16_12h01.52.352,TranslationElicitation_spa,3.2.4,Win32,60,5ee3ddcd3f9ded0c586a8edf,,1,0,80,0,1,79
,,,,,,,,,,,,,,,,,,,,,,,,,,,,,,,,,,,j,3.731999874,ABEJ,FALSE,,,,,,,104,abella,Catalan,Sounds/cat_abella.mp3,2020-06-16_12h01.52.352,TranslationElicitation_spa,3.2.4,Win32,60,5ee3ddcd3f9ded0c586a8edf,,1,0,80,0,1,79
,,,,,,,,,,,,,,,,,,,,,,,,,,,,,,,,,,,a,4.382999897,ABEJA,FALSE,,,,,,,104,abella,Catalan,Sounds/cat_abella.mp3,2020-06-16_12h01.52.352,TranslationElicitation_spa,3.2.4,Win32,60,5ee3ddcd3f9ded0c586a8edf,,1,0,80,0,1,79
,,,,,,,,,,,,,,,,,,,,,,,,,,,,,,,,,,,return,4.898000002,,FALSE,,,,,,,104,abella,Catalan,Sounds/cat_abella.mp3,2020-06-16_12h01.52.352,TranslationElicitation_spa,3.2.4,Win32,60,5ee3ddcd3f9ded0c586a8edf,4.898000002,1,0,80,0,1,79
,,,,,,,,,,,,,,,,,,,,,,,,,,,,,,,,,,,,,,,,,,,,,104,abella,Catalan,Sounds/cat_abella.mp3,2020-06-16_12h01.52.352,TranslationElicitation_spa,3.2.4,Win32,60,5ee3ddcd3f9ded0c586a8edf,,1,0,80,0,1,79
,,,,,,,,,,,,,,,,,,,,,,,,,,,,,,,,,,,o,47.58299994,O,FALSE,,,,,,,161,ovella,Catalan,Sounds/cat_ovella.mp3,2020-06-16_12h01.52.352,TranslationElicitation_spa,3.2.4,Win32,60,5ee3ddcd3f9ded0c586a8edf,,1,0,80,54,1,79
,,,,,,,,,,,,,,,,,,,,,,,,,,,,,,,,,,,v,60.88600016,OV,FALSE,,,,,,,161,ovella,Catalan,Sounds/cat_ovella.mp3,2020-06-16_12h01.52.352,TranslationElicitation_spa,3.2.4,Win32,60,5ee3ddcd3f9ded0c586a8edf,,1,0,80,54,1,79
,,,,,,,,,,,,,,,,,,,,,,,,,,,,,,,,,,,e,65.47399998,OVE,FALSE,,,,,,,161,ovella,Catalan,Sounds/cat_ovella.mp3,2020-06-16_12h01.52.352,TranslationElicitation_spa,3.2.4,Win32,60,5ee3ddcd3f9ded0c586a8edf,,1,0,80,54,1,79
,,,,,,,,,,,,,,,,,,,,,,,,,,,,,,,,,,,j,66.023,OVEJ,FALSE,,,,,,,161,ovella,Catalan,Sounds/cat_ovella.mp3,2020-06-16_12h01.52.352,TranslationElicitation_spa,3.2.4,Win32,60,5ee3ddcd3f9ded0c586a8edf,,1,0,80,54,1,79
,,,,,,,,,,,,,,,,,,,,,,,,,,,,,,,,,,,a,66.35800004,OVEJA,FALSE,,,,,,,161,ovella,Catalan,Sounds/cat_ovella.mp3,2020-06-16_12h01.52.352,TranslationElicitation_spa,3.2.4,Win32,60,5ee3ddcd3f9ded0c586a8edf,,1,0,80,54,1,79
,,,,,,,,,,,,,,,,,,,,,,,,,,,,,,,,,,,return,67.30700016,,FALSE,,,,,,,161,ovella,Catalan,Sounds/cat_ovella.mp3,2020-06-16_12h01.52.352,TranslationElicitation_spa,3.2.4,Win32,60,5ee3ddcd3f9ded0c586a8edf,67.30700016,1,0,80,54,1,79
,,,,,,,,,,,,,,,,,,,,,,,,,,,,,,,,,,,,,,,,,,,,,161,ovella,Catalan,Sounds/cat_ovella.mp3,2020-06-16_12h01.52.352,TranslationElicitation_spa,3.2.4,Win32,60,5ee3ddcd3f9ded0c586a8edf,,1,0,80,54,1,79
,,,,,,,,,,,,,,,,,,,,,,,,,,,,,,,,,,,v,5.225999832,V,FALSE,,,,,,,158,nas,Catalan,Sounds/cat_nas.mp3,2020-06-16_12h01.52.352,TranslationElicitation_spa,3.2.4,Win32,60,5ee3ddcd3f9ded0c586a8edf,,1,0,80,52,1,79
,,,,,,,,,,,,,,,,,,,,,,,,,,,,,,,,,,,a,5.625999928,VA,FALSE,,,,,,,158,nas,Catalan,Sounds/cat_nas.mp3,2020-06-16_12h01.52.352,TranslationElicitation_spa,3.2.4,Win32,60,5ee3ddcd3f9ded0c586a8edf,,1,0,80,52,1,79
,,,,,,,,,,,,,,,,,,,,,,,,,,,,,,,,,,,c,5.892999887,VAC,FALSE,,,,,,,158,nas,Catalan,Sounds/cat_nas.mp3,2020-06-16_12h01.52.352,TranslationElicitation_spa,3.2.4,Win32,60,5ee3ddcd3f9ded0c586a8edf,,1,0,80,52,1,79
,,,,,,,,,,,,,,,,,,,,,,,,,,,,,,,,,,,a,6.142999887,VACA,FALSE,,,,,,,158,nas,Catalan,Sounds/cat_nas.mp3,2020-06-16_12h01.52.352,TranslationElicitation_spa,3.2.4,Win32,60,5ee3ddcd3f9ded0c586a8edf,,1,0,80,52,1,79
,,,,,,,,,,,,,,,,,,,,,,,,,,,,,,,,,,,return,6.44299984,,FALSE,,,,,,,158,nas,Catalan,Sounds/cat_nas.mp3,2020-06-16_12h01.52.352,TranslationElicitation_spa,3.2.4,Win32,60,5ee3ddcd3f9ded0c586a8edf,6.44299984,1,0,80,52,1,79
,,,,,,,,,,,,,,,,,,,,,,,,,,,,,,,,,,,,,,,,,,,,,158,nas,Catalan,Sounds/cat_nas.mp3,2020-06-16_12h01.52.352,TranslationElicitation_spa,3.2.4,Win32,60,5ee3ddcd3f9ded0c586a8edf,,1,0,80,52,1,79
,,,,,,,,,,,,,,,,,,,,,,,,,,,,,,,,,,,p,6.131000042,P,FALSE,,,,,,,163,papallona,Catalan,Sounds/cat_papallona.mp3,2020-06-16_12h01.52.352,TranslationElicitation_spa,3.2.4,Win32,60,5ee3ddcd3f9ded0c586a8edf,,1,0,80,56,1,79
,,,,,,,,,,,,,,,,,,,,,,,,,,,,,,,,,,,a,6.530999899,PA,FALSE,,,,,,,163,papallona,Catalan,Sounds/cat_papallona.mp3,2020-06-16_12h01.52.352,TranslationElicitation_spa,3.2.4,Win32,60,5ee3ddcd3f9ded0c586a8edf,,1,0,80,56,1,79
,,,,,,,,,,,,,,,,,,,,,,,,,,,,,,,,,,,l,6.713999987,PAL,FALSE,,,,,,,163,papallona,Catalan,Sounds/cat_papallona.mp3,2020-06-16_12h01.52.352,TranslationElicitation_spa,3.2.4,Win32,60,5ee3ddcd3f9ded0c586a8edf,,1,0,80,56,1,79
,,,,,,,,,,,,,,,,,,,,,,,,,,,,,,,,,,,o,6.914000034,PALO,FALSE,,,,,,,163,papallona,Catalan,Sounds/cat_papallona.mp3,2020-06-16_12h01.52.352,TranslationElicitation_spa,3.2.4,Win32,60,5ee3ddcd3f9ded0c586a8edf,,1,0,80,56,1,79
,,,,,,,,,,,,,,,,,,,,,,,,,,,,,,,,,,,m,7.197999954,PALOM,FALSE,,,,,,,163,papallona,Catalan,Sounds/cat_papallona.mp3,2020-06-16_12h01.52.352,TranslationElicitation_spa,3.2.4,Win32,60,5ee3ddcd3f9ded0c586a8edf,,1,0,80,56,1,79
,,,,,,,,,,,,,,,,,,,,,,,,,,,,,,,,,,,a,7.613999844,PALOMA,FALSE,,,,,,,163,papallona,Catalan,Sounds/cat_papallona.mp3,2020-06-16_12h01.52.352,TranslationElicitation_spa,3.2.4,Win32,60,5ee3ddcd3f9ded0c586a8edf,,1,0,80,56,1,79
,,,,,,,,,,,,,,,,,,,,,,,,,,,,,,,,,,,return,13.57999992,,FALSE,,,,,,,163,papallona,Catalan,Sounds/cat_papallona.mp3,2020-06-16_12h01.52.352,TranslationElicitation_spa,3.2.4,Win32,60,5ee3ddcd3f9ded0c586a8edf,13.57999992,1,0,80,56,1,79
,,,,,,,,,,,,,,,,,,,,,,,,,,,,,,,,,,,,,,,,,,,,,163,papallona,Catalan,Sounds/cat_papallona.mp3,2020-06-16_12h01.52.352,TranslationElicitation_spa,3.2.4,Win32,60,5ee3ddcd3f9ded0c586a8edf,,1,0,80,56,1,79
,,,,,,,,,,,,,,,,,,,,,,,,,,,,,,,,,,,l,4.944999933,L,FALSE,,,,,,,149,llibre,Catalan,Sounds/cat_llibre.mp3,2020-06-16_12h01.52.352,TranslationElicitation_spa,3.2.4,Win32,60,5ee3ddcd3f9ded0c586a8edf,,1,0,80,43,1,79
,,,,,,,,,,,,,,,,,,,,,,,,,,,,,,,,,,,i,5.345000029,LI,FALSE,,,,,,,149,llibre,Catalan,Sounds/cat_llibre.mp3,2020-06-16_12h01.52.352,TranslationElicitation_spa,3.2.4,Win32,60,5ee3ddcd3f9ded0c586a8edf,,1,0,80,43,1,79
,,,,,,,,,,,,,,,,,,,,,,,,,,,,,,,,,,,b,5.812000036,LIB,FALSE,,,,,,,149,llibre,Catalan,Sounds/cat_llibre.mp3,2020-06-16_12h01.52.352,TranslationElicitation_spa,3.2.4,Win32,60,5ee3ddcd3f9ded0c586a8edf,,1,0,80,43,1,79
,,,,,,,,,,,,,,,,,,,,,,,,,,,,,,,,,,,r,6.111000061,LIBR,FALSE,,,,,,,149,llibre,Catalan,Sounds/cat_llibre.mp3,2020-06-16_12h01.52.352,TranslationElicitation_spa,3.2.4,Win32,60,5ee3ddcd3f9ded0c586a8edf,,1,0,80,43,1,79
,,,,,,,,,,,,,,,,,,,,,,,,,,,,,,,,,,,o,6.561000109,LIBRO,FALSE,,,,,,,149,llibre,Catalan,Sounds/cat_llibre.mp3,2020-06-16_12h01.52.352,TranslationElicitation_spa,3.2.4,Win32,60,5ee3ddcd3f9ded0c586a8edf,,1,0,80,43,1,79
,,,,,,,,,,,,,,,,,,,,,,,,,,,,,,,,,,,return,6.930999994,,FALSE,,,,,,,149,llibre,Catalan,Sounds/cat_llibre.mp3,2020-06-16_12h01.52.352,TranslationElicitation_spa,3.2.4,Win32,60,5ee3ddcd3f9ded0c586a8edf,6.930000067,1,0,80,43,1,79
,,,,,,,,,,,,,,,,,,,,,,,,,,,,,,,,,,,,,,,,,,,,,149,llibre,Catalan,Sounds/cat_llibre.mp3,2020-06-16_12h01.52.352,TranslationElicitation_spa,3.2.4,Win32,60,5ee3ddcd3f9ded0c586a8edf,,1,0,80,43,1,79
,,,,,,,,,,,,,,,,,,,,,,,,,,,,,,,,,,,g,3.746999979,G,FALSE,,,,,,,139,galleda,Catalan,Sounds/cat_galleda.mp3,2020-06-16_12h01.52.352,TranslationElicitation_spa,3.2.4,Win32,60,5ee3ddcd3f9ded0c586a8edf,,1,0,80,34,1,79
,,,,,,,,,,,,,,,,,,,,,,,,,,,,,,,,,,,a,4.247999907,GA,FALSE,,,,,,,139,galleda,Catalan,Sounds/cat_galleda.mp3,2020-06-16_12h01.52.352,TranslationElicitation_spa,3.2.4,Win32,60,5ee3ddcd3f9ded0c586a8edf,,1,0,80,34,1,79
,,,,,,,,,,,,,,,,,,,,,,,,,,,,,,,,,,,l,4.701999903,GAL,FALSE,,,,,,,139,galleda,Catalan,Sounds/cat_galleda.mp3,2020-06-16_12h01.52.352,TranslationElicitation_spa,3.2.4,Win32,60,5ee3ddcd3f9ded0c586a8edf,,1,0,80,34,1,79
,,,,,,,,,,,,,,,,,,,,,,,,,,,,,,,,,,,l,4.864000082,GALL,FALSE,,,,,,,139,galleda,Catalan,Sounds/cat_galleda.mp3,2020-06-16_12h01.52.352,TranslationElicitation_spa,3.2.4,Win32,60,5ee3ddcd3f9ded0c586a8edf,,1,0,80,34,1,79
,,,,,,,,,,,,,,,,,,,,,,,,,,,,,,,,,,,e,4.997999907,GALLE,FALSE,,,,,,,139,galleda,Catalan,Sounds/cat_galleda.mp3,2020-06-16_12h01.52.352,TranslationElicitation_spa,3.2.4,Win32,60,5ee3ddcd3f9ded0c586a8edf,,1,0,80,34,1,79
,,,,,,,,,,,,,,,,,,,,,,,,,,,,,,,,,,,t,5.614000082,GALLET,FALSE,,,,,,,139,galleda,Catalan,Sounds/cat_galleda.mp3,2020-06-16_12h01.52.352,TranslationElicitation_spa,3.2.4,Win32,60,5ee3ddcd3f9ded0c586a8edf,,1,0,80,34,1,79
,,,,,,,,,,,,,,,,,,,,,,,,,,,,,,,,,,,a,6.063999891,GALLETA,FALSE,,,,,,,139,galleda,Catalan,Sounds/cat_galleda.mp3,2020-06-16_12h01.52.352,TranslationElicitation_spa,3.2.4,Win32,60,5ee3ddcd3f9ded0c586a8edf,,1,0,80,34,1,79
,,,,,,,,,,,,,,,,,,,,,,,,,,,,,,,,,,,return,6.914000034,,FALSE,,,,,,,139,galleda,Catalan,Sounds/cat_galleda.mp3,2020-06-16_12h01.52.352,TranslationElicitation_spa,3.2.4,Win32,60,5ee3ddcd3f9ded0c586a8edf,6.914000034,1,0,80,34,1,79
,,,,,,,,,,,,,,,,,,,,,,,,,,,,,,,,,,,,,,,,,,,,,139,galleda,Catalan,Sounds/cat_galleda.mp3,2020-06-16_12h01.52.352,TranslationElicitation_spa,3.2.4,Win32,60,5ee3ddcd3f9ded0c586a8edf,,1,0,80,34,1,79
,,,,,,,,,,,,,,,,,,,,,,,,,,,,,,,,,,,c,2.798000097,C,FALSE,,,,,,,188,xocolata,Catalan,Sounds/cat_xocolata.mp3,2020-06-16_12h01.52.352,TranslationElicitation_spa,3.2.4,Win32,60,5ee3ddcd3f9ded0c586a8edf,,1,0,80,78,1,79
,,,,,,,,,,,,,,,,,,,,,,,,,,,,,,,,,,,h,3.200999975,CH,FALSE,,,,,,,188,xocolata,Catalan,Sounds/cat_xocolata.mp3,2020-06-16_12h01.52.352,TranslationElicitation_spa,3.2.4,Win32,60,5ee3ddcd3f9ded0c586a8edf,,1,0,80,78,1,79
,,,,,,,,,,,,,,,,,,,,,,,,,,,,,,,,,,,o,3.34800005,CHO,FALSE,,,,,,,188,xocolata,Catalan,Sounds/cat_xocolata.mp3,2020-06-16_12h01.52.352,TranslationElicitation_spa,3.2.4,Win32,60,5ee3ddcd3f9ded0c586a8edf,,1,0,80,78,1,79
,,,,,,,,,,,,,,,,,,,,,,,,,,,,,,,,,,,c,3.697999954,CHOC,FALSE,,,,,,,188,xocolata,Catalan,Sounds/cat_xocolata.mp3,2020-06-16_12h01.52.352,TranslationElicitation_spa,3.2.4,Win32,60,5ee3ddcd3f9ded0c586a8edf,,1,0,80,78,1,79
,,,,,,,,,,,,,,,,,,,,,,,,,,,,,,,,,,,o,3.798000097,CHOCO,FALSE,,,,,,,188,xocolata,Catalan,Sounds/cat_xocolata.mp3,2020-06-16_12h01.52.352,TranslationElicitation_spa,3.2.4,Win32,60,5ee3ddcd3f9ded0c586a8edf,,1,0,80,78,1,79
,,,,,,,,,,,,,,,,,,,,,,,,,,,,,,,,,,,l,3.998000145,CHOCOL,FALSE,,,,,,,188,xocolata,Catalan,Sounds/cat_xocolata.mp3,2020-06-16_12h01.52.352,TranslationElicitation_spa,3.2.4,Win32,60,5ee3ddcd3f9ded0c586a8edf,,1,0,80,78,1,79
,,,,,,,,,,,,,,,,,,,,,,,,,,,,,,,,,,,a,4.131999969,CHOCOLA,FALSE,,,,,,,188,xocolata,Catalan,Sounds/cat_xocolata.mp3,2020-06-16_12h01.52.352,TranslationElicitation_spa,3.2.4,Win32,60,5ee3ddcd3f9ded0c586a8edf,,1,0,80,78,1,79
,,,,,,,,,,,,,,,,,,,,,,,,,,,,,,,,,,,t,4.433000088,CHOCOLAT,FALSE,,,,,,,188,xocolata,Catalan,Sounds/cat_xocolata.mp3,2020-06-16_12h01.52.352,TranslationElicitation_spa,3.2.4,Win32,60,5ee3ddcd3f9ded0c586a8edf,,1,0,80,78,1,79
,,,,,,,,,,,,,,,,,,,,,,,,,,,,,,,,,,,e,4.532999992,CHOCOLATE,FALSE,,,,,,,188,xocolata,Catalan,Sounds/cat_xocolata.mp3,2020-06-16_12h01.52.352,TranslationElicitation_spa,3.2.4,Win32,60,5ee3ddcd3f9ded0c586a8edf,,1,0,80,78,1,79
,,,,,,,,,,,,,,,,,,,,,,,,,,,,,,,,,,,return,4.94900012,,FALSE,,,,,,,188,xocolata,Catalan,Sounds/cat_xocolata.mp3,2020-06-16_12h01.52.352,TranslationElicitation_spa,3.2.4,Win32,60,5ee3ddcd3f9ded0c586a8edf,4.94900012,1,0,80,78,1,79
,,,,,,,,,,,,,,,,,,,,,,,,,,,,,,,,,,,,,,,,,,,,,188,xocolata,Catalan,Sounds/cat_xocolata.mp3,2020-06-16_12h01.52.352,TranslationElicitation_spa,3.2.4,Win32,60,5ee3ddcd3f9ded0c586a8edf,,1,0,80,78,1,79
,,,,,,,,,,,,,,,,,,,,,,,,,,,,,,,,,,,m,2.030999899,M,FALSE,,,,,,,155,moneda,Catalan,Sounds/cat_moneda.mp3,2020-06-16_12h01.52.352,TranslationElicitation_spa,3.2.4,Win32,60,5ee3ddcd3f9ded0c586a8edf,,1,0,80,49,1,79
,,,,,,,,,,,,,,,,,,,,,,,,,,,,,,,,,,,o,2.265000105,MO,FALSE,,,,,,,155,moneda,Catalan,Sounds/cat_moneda.mp3,2020-06-16_12h01.52.352,TranslationElicitation_spa,3.2.4,Win32,60,5ee3ddcd3f9ded0c586a8edf,,1,0,80,49,1,79
,,,,,,,,,,,,,,,,,,,,,,,,,,,,,,,,,,,n,2.631000042,MON,FALSE,,,,,,,155,moneda,Catalan,Sounds/cat_moneda.mp3,2020-06-16_12h01.52.352,TranslationElicitation_spa,3.2.4,Win32,60,5ee3ddcd3f9ded0c586a8edf,,1,0,80,49,1,79
,,,,,,,,,,,,,,,,,,,,,,,,,,,,,,,,,,,e,3.048000097,MONE,FALSE,,,,,,,155,moneda,Catalan,Sounds/cat_moneda.mp3,2020-06-16_12h01.52.352,TranslationElicitation_spa,3.2.4,Win32,60,5ee3ddcd3f9ded0c586a8edf,,1,0,80,49,1,79
,,,,,,,,,,,,,,,,,,,,,,,,,,,,,,,,,,,d,3.217000008,MONED,FALSE,,,,,,,155,moneda,Catalan,Sounds/cat_moneda.mp3,2020-06-16_12h01.52.352,TranslationElicitation_spa,3.2.4,Win32,60,5ee3ddcd3f9ded0c586a8edf,,1,0,80,49,1,79
,,,,,,,,,,,,,,,,,,,,,,,,,,,,,,,,,,,a,3.414999962,MONEDA,FALSE,,,,,,,155,moneda,Catalan,Sounds/cat_moneda.mp3,2020-06-16_12h01.52.352,TranslationElicitation_spa,3.2.4,Win32,60,5ee3ddcd3f9ded0c586a8edf,,1,0,80,49,1,79
,,,,,,,,,,,,,,,,,,,,,,,,,,,,,,,,,,,return,4.309999943,,FALSE,,,,,,,155,moneda,Catalan,Sounds/cat_moneda.mp3,2020-06-16_12h01.52.352,TranslationElicitation_spa,3.2.4,Win32,60,5ee3ddcd3f9ded0c586a8edf,4.309999943,1,0,80,49,1,79
,,,,,,,,,,,,,,,,,,,,,,,,,,,,,,,,,,,,,,,,,,,,,155,moneda,Catalan,Sounds/cat_moneda.mp3,2020-06-16_12h01.52.352,TranslationElicitation_spa,3.2.4,Win32,60,5ee3ddcd3f9ded0c586a8edf,,1,0,80,49,1,79
,,,,,,,,,,,,,,,,,,,,,,,,,,,,,,,,,,,b,6.282000065,B,FALSE,,,,,,,112,bici,Catalan,Sounds/cat_bici.mp3,2020-06-16_12h01.52.352,TranslationElicitation_spa,3.2.4,Win32,60,5ee3ddcd3f9ded0c586a8edf,,1,0,80,7,1,79
,,,,,,,,,,,,,,,,,,,,,,,,,,,,,,,,,,,i,6.532000065,BI,FALSE,,,,,,,112,bici,Catalan,Sounds/cat_bici.mp3,2020-06-16_12h01.52.352,TranslationElicitation_spa,3.2.4,Win32,60,5ee3ddcd3f9ded0c586a8edf,,1,0,80,7,1,79
,,,,,,,,,,,,,,,,,,,,,,,,,,,,,,,,,,,c,6.832999945,BIC,FALSE,,,,,,,112,bici,Catalan,Sounds/cat_bici.mp3,2020-06-16_12h01.52.352,TranslationElicitation_spa,3.2.4,Win32,60,5ee3ddcd3f9ded0c586a8edf,,1,0,80,7,1,79
,,,,,,,,,,,,,,,,,,,,,,,,,,,,,,,,,,,i,6.980999947,BICI,FALSE,,,,,,,112,bici,Catalan,Sounds/cat_bici.mp3,2020-06-16_12h01.52.352,TranslationElicitation_spa,3.2.4,Win32,60,5ee3ddcd3f9ded0c586a8edf,,1,0,80,7,1,79
,,,,,,,,,,,,,,,,,,,,,,,,,,,,,,,,,,,return,7.631000042,,FALSE,,,,,,,112,bici,Catalan,Sounds/cat_bici.mp3,2020-06-16_12h01.52.352,TranslationElicitation_spa,3.2.4,Win32,60,5ee3ddcd3f9ded0c586a8edf,7.631000042,1,0,80,7,1,79
,,,,,,,,,,,,,,,,,,,,,,,,,,,,,,,,,,,,,,,,,,,,,112,bici,Catalan,Sounds/cat_bici.mp3,2020-06-16_12h01.52.352,TranslationElicitation_spa,3.2.4,Win32,60,5ee3ddcd3f9ded0c586a8edf,,1,0,80,7,1,79
,,,,,,,,,,,,,,,,,,,,,,,,,,,,,,,,,,,e,2.61500001,E,FALSE,,,,,,,132,estrella,Catalan,Sounds/cat_estrella.mp3,2020-06-16_12h01.52.352,TranslationElicitation_spa,3.2.4,Win32,60,5ee3ddcd3f9ded0c586a8edf,,1,0,80,27,1,79
,,,,,,,,,,,,,,,,,,,,,,,,,,,,,,,,,,,s,2.83100009,ES,FALSE,,,,,,,132,estrella,Catalan,Sounds/cat_estrella.mp3,2020-06-16_12h01.52.352,TranslationElicitation_spa,3.2.4,Win32,60,5ee3ddcd3f9ded0c586a8edf,,1,0,80,27,1,79
,,,,,,,,,,,,,,,,,,,,,,,,,,,,,,,,,,,t,3.180999994,EST,FALSE,,,,,,,132,estrella,Catalan,Sounds/cat_estrella.mp3,2020-06-16_12h01.52.352,TranslationElicitation_spa,3.2.4,Win32,60,5ee3ddcd3f9ded0c586a8edf,,1,0,80,27,1,79
,,,,,,,,,,,,,,,,,,,,,,,,,,,,,,,,,,,r,3.636000156,ESTR,FALSE,,,,,,,132,estrella,Catalan,Sounds/cat_estrella.mp3,2020-06-16_12h01.52.352,TranslationElicitation_spa,3.2.4,Win32,60,5ee3ddcd3f9ded0c586a8edf,,1,0,80,27,1,79
,,,,,,,,,,,,,,,,,,,,,,,,,,,,,,,,,,,e,3.840000153,ESTRE,FALSE,,,,,,,132,estrella,Catalan,Sounds/cat_estrella.mp3,2020-06-16_12h01.52.352,TranslationElicitation_spa,3.2.4,Win32,60,5ee3ddcd3f9ded0c586a8edf,,1,0,80,27,1,79
,,,,,,,,,,,,,,,,,,,,,,,,,,,,,,,,,,,l,5.100000143,ESTREL,FALSE,,,,,,,132,estrella,Catalan,Sounds/cat_estrella.mp3,2020-06-16_12h01.52.352,TranslationElicitation_spa,3.2.4,Win32,60,5ee3ddcd3f9ded0c586a8edf,,1,0,80,27,1,79
,,,,,,,,,,,,,,,,,,,,,,,,,,,,,,,,,,,l,9.930999994,ESTRELL,FALSE,,,,,,,132,estrella,Catalan,Sounds/cat_estrella.mp3,2020-06-16_12h01.52.352,TranslationElicitation_spa,3.2.4,Win32,60,5ee3ddcd3f9ded0c586a8edf,,1,0,80,27,1,79
,,,,,,,,,,,,,,,,,,,,,,,,,,,,,,,,,,,a,10.36400008,ESTRELLA,FALSE,,,,,,,132,estrella,Catalan,Sounds/cat_estrella.mp3,2020-06-16_12h01.52.352,TranslationElicitation_spa,3.2.4,Win32,60,5ee3ddcd3f9ded0c586a8edf,,1,0,80,27,1,79
,,,,,,,,,,,,,,,,,,,,,,,,,,,,,,,,,,,return,11.13100004,,FALSE,,,,,,,132,estrella,Catalan,Sounds/cat_estrella.mp3,2020-06-16_12h01.52.352,TranslationElicitation_spa,3.2.4,Win32,60,5ee3ddcd3f9ded0c586a8edf,11.13100004,1,0,80,27,1,79
,,,,,,,,,,,,,,,,,,,,,,,,,,,,,,,,,,,,,,,,,,,,,132,estrella,Catalan,Sounds/cat_estrella.mp3,2020-06-16_12h01.52.352,TranslationElicitation_spa,3.2.4,Win32,60,5ee3ddcd3f9ded0c586a8edf,,1,0,80,27,1,79
,,,,,,,,,,,,,,,,,,,,,,,,,,,,,,,,,,,g,4.32799983,G,FALSE,,,,,,,145,got,Catalan,Sounds/cat_got.mp3,2020-06-16_12h01.52.352,TranslationElicitation_spa,3.2.4,Win32,60,5ee3ddcd3f9ded0c586a8edf,,1,0,80,40,1,79
,,,,,,,,,,,,,,,,,,,,,,,,,,,,,,,,,,,o,4.77699995,GO,FALSE,,,,,,,145,got,Catalan,Sounds/cat_got.mp3,2020-06-16_12h01.52.352,TranslationElicitation_spa,3.2.4,Win32,60,5ee3ddcd3f9ded0c586a8edf,,1,0,80,40,1,79
,,,,,,,,,,,,,,,,,,,,,,,,,,,,,,,,,,,l,4.993999958,GOL,FALSE,,,,,,,145,got,Catalan,Sounds/cat_got.mp3,2020-06-16_12h01.52.352,TranslationElicitation_spa,3.2.4,Win32,60,5ee3ddcd3f9ded0c586a8edf,,1,0,80,40,1,79
,,,,,,,,,,,,,,,,,,,,,,,,,,,,,,,,,,,return,5.977999926,,FALSE,,,,,,,145,got,Catalan,Sounds/cat_got.mp3,2020-06-16_12h01.52.352,TranslationElicitation_spa,3.2.4,Win32,60,5ee3ddcd3f9ded0c586a8edf,5.977999926,1,0,80,40,1,79
,,,,,,,,,,,,,,,,,,,,,,,,,,,,,,,,,,,,,,,,,,,,,145,got,Catalan,Sounds/cat_got.mp3,2020-06-16_12h01.52.352,TranslationElicitation_spa,3.2.4,Win32,60,5ee3ddcd3f9ded0c586a8edf,,1,0,80,40,1,79
,,,,,,,,,,,,,,,,,,,,,,,,,,,,,,,,,,,g,9.281000137,G,FALSE,,,,,,,115,bolet,Catalan,Sounds/cat_bolet.mp3,2020-06-16_12h01.52.352,TranslationElicitation_spa,3.2.4,Win32,60,5ee3ddcd3f9ded0c586a8edf,,1,0,80,10,1,79
,,,,,,,,,,,,,,,,,,,,,,,,,,,,,,,,,,,u,9.56400013,GU,FALSE,,,,,,,115,bolet,Catalan,Sounds/cat_bolet.mp3,2020-06-16_12h01.52.352,TranslationElicitation_spa,3.2.4,Win32,60,5ee3ddcd3f9ded0c586a8edf,,1,0,80,10,1,79
,,,,,,,,,,,,,,,,,,,,,,,,,,,,,,,,,,,l,11.16400003,GUL,FALSE,,,,,,,115,bolet,Catalan,Sounds/cat_bolet.mp3,2020-06-16_12h01.52.352,TranslationElicitation_spa,3.2.4,Win32,60,5ee3ddcd3f9ded0c586a8edf,,1,0,80,10,1,79
,,,,,,,,,,,,,,,,,,,,,,,,,,,,,,,,,,,e,11.93000007,GULE,FALSE,,,,,,,115,bolet,Catalan,Sounds/cat_bolet.mp3,2020-06-16_12h01.52.352,TranslationElicitation_spa,3.2.4,Win32,60,5ee3ddcd3f9ded0c586a8edf,,1,0,80,10,1,79
,,,,,,,,,,,,,,,,,,,,,,,,,,,,,,,,,,,t,12.39600015,GULET,FALSE,,,,,,,115,bolet,Catalan,Sounds/cat_bolet.mp3,2020-06-16_12h01.52.352,TranslationElicitation_spa,3.2.4,Win32,60,5ee3ddcd3f9ded0c586a8edf,,1,0,80,10,1,79
,,,,,,,,,,,,,,,,,,,,,,,,,,,,,,,,,,,return,13.37900019,,FALSE,,,,,,,115,bolet,Catalan,Sounds/cat_bolet.mp3,2020-06-16_12h01.52.352,TranslationElicitation_spa,3.2.4,Win32,60,5ee3ddcd3f9ded0c586a8edf,13.37900019,1,0,80,10,1,79
,,,,,,,,,,,,,,,,,,,,,,,,,,,,,,,,,,,,,,,,,,,,,115,bolet,Catalan,Sounds/cat_bolet.mp3,2020-06-16_12h01.52.352,TranslationElicitation_spa,3.2.4,Win32,60,5ee3ddcd3f9ded0c586a8edf,,1,0,80,10,1,79
,,,,,,,,,,,,,,,,,,,,,,,,,,,,,,,,,,,a,4.094000101,A,FALSE,,,,,,,141,gerd,Catalan,Sounds/cat_gerd.mp3,2020-06-16_12h01.52.352,TranslationElicitation_spa,3.2.4,Win32,60,5ee3ddcd3f9ded0c586a8edf,,1,0,80,36,1,79
,,,,,,,,,,,,,,,,,,,,,,,,,,,,,,,,,,,y,4.578999996,AY,FALSE,,,,,,,141,gerd,Catalan,Sounds/cat_gerd.mp3,2020-06-16_12h01.52.352,TranslationElicitation_spa,3.2.4,Win32,60,5ee3ddcd3f9ded0c586a8edf,,1,0,80,36,1,79
,,,,,,,,,,,,,,,,,,,,,,,,,,,,,,,,,,,e,5.278000116,AYE,FALSE,,,,,,,141,gerd,Catalan,Sounds/cat_gerd.mp3,2020-06-16_12h01.52.352,TranslationElicitation_spa,3.2.4,Win32,60,5ee3ddcd3f9ded0c586a8edf,,1,0,80,36,1,79
,,,,,,,,,,,,,,,,,,,,,,,,,,,,,,,,,,,r,5.478000164,AYER,FALSE,,,,,,,141,gerd,Catalan,Sounds/cat_gerd.mp3,2020-06-16_12h01.52.352,TranslationElicitation_spa,3.2.4,Win32,60,5ee3ddcd3f9ded0c586a8edf,,1,0,80,36,1,79
,,,,,,,,,,,,,,,,,,,,,,,,,,,,,,,,,,,return,6.226999998,,FALSE,,,,,,,141,gerd,Catalan,Sounds/cat_gerd.mp3,2020-06-16_12h01.52.352,TranslationElicitation_spa,3.2.4,Win32,60,5ee3ddcd3f9ded0c586a8edf,6.226999998,1,0,80,36,1,79
,,,,,,,,,,,,,,,,,,,,,,,,,,,,,,,,,,,,,,,,,,,,,141,gerd,Catalan,Sounds/cat_gerd.mp3,2020-06-16_12h01.52.352,TranslationElicitation_spa,3.2.4,Win32,60,5ee3ddcd3f9ded0c586a8edf,,1,0,80,36,1,79
,,,,,,,,,,,,,,,,,,,,,,,,,,,,,,,,,,,c,2.631000042,C,FALSE,,,,,,,127,cotxe,Catalan,Sounds/cat_cotxe.mp3,2020-06-16_12h01.52.352,TranslationElicitation_spa,3.2.4,Win32,60,5ee3ddcd3f9ded0c586a8edf,,1,0,80,22,1,79
,,,,,,,,,,,,,,,,,,,,,,,,,,,,,,,,,,,o,3.148000002,CO,FALSE,,,,,,,127,cotxe,Catalan,Sounds/cat_cotxe.mp3,2020-06-16_12h01.52.352,TranslationElicitation_spa,3.2.4,Win32,60,5ee3ddcd3f9ded0c586a8edf,,1,0,80,22,1,79
,,,,,,,,,,,,,,,,,,,,,,,,,,,,,,,,,,,c,3.864000082,COC,FALSE,,,,,,,127,cotxe,Catalan,Sounds/cat_cotxe.mp3,2020-06-16_12h01.52.352,TranslationElicitation_spa,3.2.4,Win32,60,5ee3ddcd3f9ded0c586a8edf,,1,0,80,22,1,79
,,,,,,,,,,,,,,,,,,,,,,,,,,,,,,,,,,,h,4.263999939,COCH,FALSE,,,,,,,127,cotxe,Catalan,Sounds/cat_cotxe.mp3,2020-06-16_12h01.52.352,TranslationElicitation_spa,3.2.4,Win32,60,5ee3ddcd3f9ded0c586a8edf,,1,0,80,22,1,79
,,,,,,,,,,,,,,,,,,,,,,,,,,,,,,,,,,,e,4.714999914,COCHE,FALSE,,,,,,,127,cotxe,Catalan,Sounds/cat_cotxe.mp3,2020-06-16_12h01.52.352,TranslationElicitation_spa,3.2.4,Win32,60,5ee3ddcd3f9ded0c586a8edf,,1,0,80,22,1,79
,,,,,,,,,,,,,,,,,,,,,,,,,,,,,,,,,,,return,5.59800005,,FALSE,,,,,,,127,cotxe,Catalan,Sounds/cat_cotxe.mp3,2020-06-16_12h01.52.352,TranslationElicitation_spa,3.2.4,Win32,60,5ee3ddcd3f9ded0c586a8edf,5.597000122,1,0,80,22,1,79
,,,,,,,,,,,,,,,,,,,,,,,,,,,,,,,,,,,,,,,,,,,,,127,cotxe,Catalan,Sounds/cat_cotxe.mp3,2020-06-16_12h01.52.352,TranslationElicitation_spa,3.2.4,Win32,60,5ee3ddcd3f9ded0c586a8edf,,1,0,80,22,1,79
,,,,,,,,,,,,,,,,,,,,,,,,,,,,,,,,,,,c,3.181999922,C,FALSE,,,,,,,189,zebra,Catalan,Sounds/cat_zebra.mp3,2020-06-16_12h01.52.352,TranslationElicitation_spa,3.2.4,Win32,60,5ee3ddcd3f9ded0c586a8edf,,1,0,80,79,1,79
,,,,,,,,,,,,,,,,,,,,,,,,,,,,,,,,,,,e,3.447999954,CE,FALSE,,,,,,,189,zebra,Catalan,Sounds/cat_zebra.mp3,2020-06-16_12h01.52.352,TranslationElicitation_spa,3.2.4,Win32,60,5ee3ddcd3f9ded0c586a8edf,,1,0,80,79,1,79
,,,,,,,,,,,,,,,,,,,,,,,,,,,,,,,,,,,b,3.998000145,CEB,FALSE,,,,,,,189,zebra,Catalan,Sounds/cat_zebra.mp3,2020-06-16_12h01.52.352,TranslationElicitation_spa,3.2.4,Win32,60,5ee3ddcd3f9ded0c586a8edf,,1,0,80,79,1,79
,,,,,,,,,,,,,,,,,,,,,,,,,,,,,,,,,,,r,4.285000086,CEBR,FALSE,,,,,,,189,zebra,Catalan,Sounds/cat_zebra.mp3,2020-06-16_12h01.52.352,TranslationElicitation_spa,3.2.4,Win32,60,5ee3ddcd3f9ded0c586a8edf,,1,0,80,79,1,79
,,,,,,,,,,,,,,,,,,,,,,,,,,,,,,,,,,,a,4.681999922,CEBRA,FALSE,,,,,,,189,zebra,Catalan,Sounds/cat_zebra.mp3,2020-06-16_12h01.52.352,TranslationElicitation_spa,3.2.4,Win32,60,5ee3ddcd3f9ded0c586a8edf,,1,0,80,79,1,79
,,,,,,,,,,,,,,,,,,,,,,,,,,,,,,,,,,,backspace,6.865999937,CEB,TRUE,,,,,,,189,zebra,Catalan,Sounds/cat_zebra.mp3,2020-06-16_12h01.52.352,TranslationElicitation_spa,3.2.4,Win32,60,5ee3ddcd3f9ded0c586a8edf,,1,0,80,79,1,79
,,,,,,,,,,,,,,,,,,,,,,,,,,,,,,,,,,,backspace,7.049000025,C,TRUE,,,,,,,189,zebra,Catalan,Sounds/cat_zebra.mp3,2020-06-16_12h01.52.352,TranslationElicitation_spa,3.2.4,Win32,60,5ee3ddcd3f9ded0c586a8edf,,1,0,80,79,1,79
,,,,,,,,,,,,,,,,,,,,,,,,,,,,,,,,,,,backspace,7.232000113,,TRUE,,,,,,,189,zebra,Catalan,Sounds/cat_zebra.mp3,2020-06-16_12h01.52.352,TranslationElicitation_spa,3.2.4,Win32,60,5ee3ddcd3f9ded0c586a8edf,,1,0,80,79,1,79
,,,,,,,,,,,,,,,,,,,,,,,,,,,,,,,,,,,z,8.281000137,Z,TRUE,,,,,,,189,zebra,Catalan,Sounds/cat_zebra.mp3,2020-06-16_12h01.52.352,TranslationElicitation_spa,3.2.4,Win32,60,5ee3ddcd3f9ded0c586a8edf,,1,0,80,79,1,79
,,,,,,,,,,,,,,,,,,,,,,,,,,,,,,,,,,,e,8.584000111,ZE,TRUE,,,,,,,189,zebra,Catalan,Sounds/cat_zebra.mp3,2020-06-16_12h01.52.352,TranslationElicitation_spa,3.2.4,Win32,60,5ee3ddcd3f9ded0c586a8edf,,1,0,80,79,1,79
,,,,,,,,,,,,,,,,,,,,,,,,,,,,,,,,,,,b,8.980999947,ZEB,TRUE,,,,,,,189,zebra,Catalan,Sounds/cat_zebra.mp3,2020-06-16_12h01.52.352,TranslationElicitation_spa,3.2.4,Win32,60,5ee3ddcd3f9ded0c586a8edf,,1,0,80,79,1,79
,,,,,,,,,,,,,,,,,,,,,,,,,,,,,,,,,,,r,9.248000145,ZEBR,TRUE,,,,,,,189,zebra,Catalan,Sounds/cat_zebra.mp3,2020-06-16_12h01.52.352,TranslationElicitation_spa,3.2.4,Win32,60,5ee3ddcd3f9ded0c586a8edf,,1,0,80,79,1,79
,,,,,,,,,,,,,,,,,,,,,,,,,,,,,,,,,,,a,9.59800005,ZEBRA,TRUE,,,,,,,189,zebra,Catalan,Sounds/cat_zebra.mp3,2020-06-16_12h01.52.352,TranslationElicitation_spa,3.2.4,Win32,60,5ee3ddcd3f9ded0c586a8edf,,1,0,80,79,1,79
,,,,,,,,,,,,,,,,,,,,,,,,,,,,,,,,,,,a,9.667999983,ZEBRAA,TRUE,,,,,,,189,zebra,Catalan,Sounds/cat_zebra.mp3,2020-06-16_12h01.52.352,TranslationElicitation_spa,3.2.4,Win32,60,5ee3ddcd3f9ded0c586a8edf,,1,0,80,79,1,79
,,,,,,,,,,,,,,,,,,,,,,,,,,,,,,,,,,,backspace,10.43099999,ZEBR,TRUE,,,,,,,189,zebra,Catalan,Sounds/cat_zebra.mp3,2020-06-16_12h01.52.352,TranslationElicitation_spa,3.2.4,Win32,60,5ee3ddcd3f9ded0c586a8edf,,1,0,80,79,1,79
,,,,,,,,,,,,,,,,,,,,,,,,,,,,,,,,,,,return,10.70099998,,TRUE,,,,,,,189,zebra,Catalan,Sounds/cat_zebra.mp3,2020-06-16_12h01.52.352,TranslationElicitation_spa,3.2.4,Win32,60,5ee3ddcd3f9ded0c586a8edf,10.70099998,1,0,80,79,1,79
,,,,,,,,,,,,,,,,,,,,,,,,,,,,,,,,,,,,,,,,,,,,,189,zebra,Catalan,Sounds/cat_zebra.mp3,2020-06-16_12h01.52.352,TranslationElicitation_spa,3.2.4,Win32,60,5ee3ddcd3f9ded0c586a8edf,,1,0,80,79,1,79
,,,,,,,,,,,,,,,,,,,,,,,,,,,,,,,,,,,e,2.626000166,E,FALSE,,,,,,,131,esponja,Catalan,Sounds/cat_esponja.mp3,2020-06-16_12h01.52.352,TranslationElicitation_spa,3.2.4,Win32,60,5ee3ddcd3f9ded0c586a8edf,,1,0,80,26,1,79
,,,,,,,,,,,,,,,,,,,,,,,,,,,,,,,,,,,s,2.860000134,ES,FALSE,,,,,,,131,esponja,Catalan,Sounds/cat_esponja.mp3,2020-06-16_12h01.52.352,TranslationElicitation_spa,3.2.4,Win32,60,5ee3ddcd3f9ded0c586a8edf,,1,0,80,26,1,79
,,,,,,,,,,,,,,,,,,,,,,,,,,,,,,,,,,,p,3.160000086,ESP,FALSE,,,,,,,131,esponja,Catalan,Sounds/cat_esponja.mp3,2020-06-16_12h01.52.352,TranslationElicitation_spa,3.2.4,Win32,60,5ee3ddcd3f9ded0c586a8edf,,1,0,80,26,1,79
,,,,,,,,,,,,,,,,,,,,,,,,,,,,,,,,,,,a,3.310000181,ESPA,FALSE,,,,,,,131,esponja,Catalan,Sounds/cat_esponja.mp3,2020-06-16_12h01.52.352,TranslationElicitation_spa,3.2.4,Win32,60,5ee3ddcd3f9ded0c586a8edf,,1,0,80,26,1,79
