consentKey.keys,consentKey.rt,languageL1Key.keys,languageL1Key.rt,languageL2,languageL2OralKey.keys,languageL2OralKey.rt,languageL2WrittenKey.keys,languageL2WrittenKey.rt,languageL3OralKey.keys,languageL3OralKey.rt,languageL3WrittenKey.keys,languageL3WrittenKey.rt,languageCatalanOralKey.keys,languageCatalanOralKey.rt,languageCatalanWrittenKey.keys,languageCatalanWrittenKey.rt,languageCatalanTimeKey.keys,languageCatalanTimeKey.rt,languageSpanishOralKey.keys,languageSpanishOralKey.rt,languageSpanishWrittenKey.keys,languageSpanishWrittenKey.rt,languageSpanishTimeKey.keys,languageSpanishTimeKey.rt,age,demoSexKey.keys,demoSexKey.rt,demoEducationKey.keys,demoEducationKey.rt,city,demoVisionKey.keys,demoVisionKey.rt,demoLanguageKey.keys,demoLanguageKey.rt,setupLocationKey.keys,setupLocationKey.rt,setupNoiseKey.keys,setupNoiseKey.rt,instructionsKeys.keys,instructionsKeys.rt,keyPressed,keyPressTime,inputText,error,trialsPracticeSpanish.thisRepN,trialsPracticeSpanish.thisTrialN,trialsPracticeSpanish.thisN,trialsPracticeSpanish.thisIndex,trialsPracticeSpanish.ran,trialsPracticeSpanish.order,trial_id,word,test_language,soundfile,date,expName,psychopyVersion,OS,frameRate,participant,trialOffset,trialsSpanish.thisRepN,trialsSpanish.thisTrialN,trialsSpanish.thisN,trialsSpanish.thisIndex,trialsSpanish.ran,trialsSpanish.order
space,7.656999826,e,4.375,,,,,,,,,,1,7.832000017,1,7.978999853,1,8.375999928,2,5.332999945,1,5.404999971,1,5.324999809,24,f,2.888999939,3,6.292000055,HARTLEPOOL,y,4.468999863,n,4.320999861,1,11.0769999,2,4.977999926,space,24.85499978,g,10.72300005,G,FALSE,1,0,5,4,1,4,96,tigre,Spanish,Sounds/spa_tigre.mp3,2020-06-24_18h18.01.106,TranslationElicitation_eng-prolific-spa,3.2.4,Win32,60,5ee7665a74f20302efda997f,,,,,,,
,,,,,,,,,,,,,,,,,,,,,,,,,,,,,,,,,,,,,,,,,r,11.69099998,GR,FALSE,1,0,5,4,1,4,96,tigre,Spanish,Sounds/spa_tigre.mp3,2020-06-24_18h18.01.106,TranslationElicitation_eng-prolific-spa,3.2.4,Win32,60,5ee7665a74f20302efda997f,,,,,,,
,,,,,,,,,,,,,,,,,,,,,,,,,,,,,,,,,,,,,,,,,e,11.77399993,GRE,FALSE,1,0,5,4,1,4,96,tigre,Spanish,Sounds/spa_tigre.mp3,2020-06-24_18h18.01.106,TranslationElicitation_eng-prolific-spa,3.2.4,Win32,60,5ee7665a74f20302efda997f,,,,,,,
,,,,,,,,,,,,,,,,,,,,,,,,,,,,,,,,,,,,,,,,,a,11.95799994,GREA,FALSE,1,0,5,4,1,4,96,tigre,Spanish,Sounds/spa_tigre.mp3,2020-06-24_18h18.01.106,TranslationElicitation_eng-prolific-spa,3.2.4,Win32,60,5ee7665a74f20302efda997f,,,,,,,
,,,,,,,,,,,,,,,,,,,,,,,,,,,,,,,,,,,,,,,,,t,12.07399988,GREAT,FALSE,1,0,5,4,1,4,96,tigre,Spanish,Sounds/spa_tigre.mp3,2020-06-24_18h18.01.106,TranslationElicitation_eng-prolific-spa,3.2.4,Win32,60,5ee7665a74f20302efda997f,,,,,,,
,,,,,,,,,,,,,,,,,,,,,,,,,,,,,,,,,,,,,,,,,return,12.45799994,GREAT,FALSE,1,0,5,4,1,4,96,tigre,Spanish,Sounds/spa_tigre.mp3,2020-06-24_18h18.01.106,TranslationElicitation_eng-prolific-spa,3.2.4,Win32,60,5ee7665a74f20302efda997f,12.45799994,,,,,,
,,,,,,,,,,,,,,,,,,,,,,,,,,,,,,,,,,,,,,,,,,,,,1,0,5,4,1,4,96,tigre,Spanish,Sounds/spa_tigre.mp3,2020-06-24_18h18.01.106,TranslationElicitation_eng-prolific-spa,3.2.4,Win32,60,5ee7665a74f20302efda997f,,,,,,,
,,,,,,,,,,,,,,,,,,,,,,,,,,,,,,,,,,,,,,,,,h,1.632999897,H,FALSE,1,0,5,3,1,4,70,ola,Spanish,Sounds/spa_ola.mp3,2020-06-24_18h18.01.106,TranslationElicitation_eng-prolific-spa,3.2.4,Win32,60,5ee7665a74f20302efda997f,,,,,,,
,,,,,,,,,,,,,,,,,,,,,,,,,,,,,,,,,,,,,,,,,e,2.200000048,HE,FALSE,1,0,5,3,1,4,70,ola,Spanish,Sounds/spa_ola.mp3,2020-06-24_18h18.01.106,TranslationElicitation_eng-prolific-spa,3.2.4,Win32,60,5ee7665a74f20302efda997f,,,,,,,
,,,,,,,,,,,,,,,,,,,,,,,,,,,,,,,,,,,,,,,,,l,2.315999985,HEL,FALSE,1,0,5,3,1,4,70,ola,Spanish,Sounds/spa_ola.mp3,2020-06-24_18h18.01.106,TranslationElicitation_eng-prolific-spa,3.2.4,Win32,60,5ee7665a74f20302efda997f,,,,,,,
,,,,,,,,,,,,,,,,,,,,,,,,,,,,,,,,,,,,,,,,,l,2.415999889,HELL,FALSE,1,0,5,3,1,4,70,ola,Spanish,Sounds/spa_ola.mp3,2020-06-24_18h18.01.106,TranslationElicitation_eng-prolific-spa,3.2.4,Win32,60,5ee7665a74f20302efda997f,,,,,,,
,,,,,,,,,,,,,,,,,,,,,,,,,,,,,,,,,,,,,,,,,o,2.566999912,HELLO,FALSE,1,0,5,3,1,4,70,ola,Spanish,Sounds/spa_ola.mp3,2020-06-24_18h18.01.106,TranslationElicitation_eng-prolific-spa,3.2.4,Win32,60,5ee7665a74f20302efda997f,,,,,,,
,,,,,,,,,,,,,,,,,,,,,,,,,,,,,,,,,,,,,,,,,return,3.750999928,HELLO,FALSE,1,0,5,3,1,4,70,ola,Spanish,Sounds/spa_ola.mp3,2020-06-24_18h18.01.106,TranslationElicitation_eng-prolific-spa,3.2.4,Win32,60,5ee7665a74f20302efda997f,3.750999928,,,,,,
,,,,,,,,,,,,,,,,,,,,,,,,,,,,,,,,,,,,,,,,,,,,,1,0,5,3,1,4,70,ola,Spanish,Sounds/spa_ola.mp3,2020-06-24_18h18.01.106,TranslationElicitation_eng-prolific-spa,3.2.4,Win32,60,5ee7665a74f20302efda997f,,,,,,,
,,,,,,,,,,,,,,,,,,,,,,,,,,,,,,,,,,,,,,,,,a,6.736999989,A,FALSE,1,0,5,0,1,4,1,arbol,Spanish,Sounds/spa_arbol.mp3,2020-06-24_18h18.01.106,TranslationElicitation_eng-prolific-spa,3.2.4,Win32,60,5ee7665a74f20302efda997f,,,,,,,
,,,,,,,,,,,,,,,,,,,,,,,,,,,,,,,,,,,,,,,,,r,7.053999901,AR,FALSE,1,0,5,0,1,4,1,arbol,Spanish,Sounds/spa_arbol.mp3,2020-06-24_18h18.01.106,TranslationElicitation_eng-prolific-spa,3.2.4,Win32,60,5ee7665a74f20302efda997f,,,,,,,
,,,,,,,,,,,,,,,,,,,,,,,,,,,,,,,,,,,,,,,,,e,7.22300005,ARE,FALSE,1,0,5,0,1,4,1,arbol,Spanish,Sounds/spa_arbol.mp3,2020-06-24_18h18.01.106,TranslationElicitation_eng-prolific-spa,3.2.4,Win32,60,5ee7665a74f20302efda997f,,,,,,,
,,,,,,,,,,,,,,,,,,,,,,,,,,,,,,,,,,,,,,,,,space,7.320999861,ARE ,FALSE,1,0,5,0,1,4,1,arbol,Spanish,Sounds/spa_arbol.mp3,2020-06-24_18h18.01.106,TranslationElicitation_eng-prolific-spa,3.2.4,Win32,60,5ee7665a74f20302efda997f,,,,,,,
,,,,,,,,,,,,,,,,,,,,,,,,,,,,,,,,,,,,,,,,,y,7.421000004,ARE Y,FALSE,1,0,5,0,1,4,1,arbol,Spanish,Sounds/spa_arbol.mp3,2020-06-24_18h18.01.106,TranslationElicitation_eng-prolific-spa,3.2.4,Win32,60,5ee7665a74f20302efda997f,,,,,,,
,,,,,,,,,,,,,,,,,,,,,,,,,,,,,,,,,,,,,,,,,o,7.503999949,ARE YO,FALSE,1,0,5,0,1,4,1,arbol,Spanish,Sounds/spa_arbol.mp3,2020-06-24_18h18.01.106,TranslationElicitation_eng-prolific-spa,3.2.4,Win32,60,5ee7665a74f20302efda997f,,,,,,,
,,,,,,,,,,,,,,,,,,,,,,,,,,,,,,,,,,,,,,,,,u,7.586999893,ARE YOU,FALSE,1,0,5,0,1,4,1,arbol,Spanish,Sounds/spa_arbol.mp3,2020-06-24_18h18.01.106,TranslationElicitation_eng-prolific-spa,3.2.4,Win32,60,5ee7665a74f20302efda997f,,,,,,,
,,,,,,,,,,,,,,,,,,,,,,,,,,,,,,,,,,,,,,,,,space,7.654000044,ARE YOU ,FALSE,1,0,5,0,1,4,1,arbol,Spanish,Sounds/spa_arbol.mp3,2020-06-24_18h18.01.106,TranslationElicitation_eng-prolific-spa,3.2.4,Win32,60,5ee7665a74f20302efda997f,,,,,,,
,,,,,,,,,,,,,,,,,,,,,,,,,,,,,,,,,,,,,,,,,o,7.820999861,ARE YOU O,FALSE,1,0,5,0,1,4,1,arbol,Spanish,Sounds/spa_arbol.mp3,2020-06-24_18h18.01.106,TranslationElicitation_eng-prolific-spa,3.2.4,Win32,60,5ee7665a74f20302efda997f,,,,,,,
,,,,,,,,,,,,,,,,,,,,,,,,,,,,,,,,,,,,,,,,,k,7.904000044,ARE YOU OK,FALSE,1,0,5,0,1,4,1,arbol,Spanish,Sounds/spa_arbol.mp3,2020-06-24_18h18.01.106,TranslationElicitation_eng-prolific-spa,3.2.4,Win32,60,5ee7665a74f20302efda997f,,,,,,,
,,,,,,,,,,,,,,,,,,,,,,,,,,,,,,,,,,,,,,,,,a,8.003999949,ARE YOU OKA,FALSE,1,0,5,0,1,4,1,arbol,Spanish,Sounds/spa_arbol.mp3,2020-06-24_18h18.01.106,TranslationElicitation_eng-prolific-spa,3.2.4,Win32,60,5ee7665a74f20302efda997f,,,,,,,
,,,,,,,,,,,,,,,,,,,,,,,,,,,,,,,,,,,,,,,,,t,8.138000011,ARE YOU OKAT,FALSE,1,0,5,0,1,4,1,arbol,Spanish,Sounds/spa_arbol.mp3,2020-06-24_18h18.01.106,TranslationElicitation_eng-prolific-spa,3.2.4,Win32,60,5ee7665a74f20302efda997f,,,,,,,
,,,,,,,,,,,,,,,,,,,,,,,,,,,,,,,,,,,,,,,,,backspace,8.955999851,ARE YOU OKA,TRUE,1,0,5,0,1,4,1,arbol,Spanish,Sounds/spa_arbol.mp3,2020-06-24_18h18.01.106,TranslationElicitation_eng-prolific-spa,3.2.4,Win32,60,5ee7665a74f20302efda997f,,,,,,,
,,,,,,,,,,,,,,,,,,,,,,,,,,,,,,,,,,,,,,,,,y,9.105000019,ARE YOU OKAY,TRUE,1,0,5,0,1,4,1,arbol,Spanish,Sounds/spa_arbol.mp3,2020-06-24_18h18.01.106,TranslationElicitation_eng-prolific-spa,3.2.4,Win32,60,5ee7665a74f20302efda997f,,,,,,,
,,,,,,,,,,,,,,,,,,,,,,,,,,,,,,,,,,,,,,,,,return,9.572000027,ARE YOU OKAY,TRUE,1,0,5,0,1,4,1,arbol,Spanish,Sounds/spa_arbol.mp3,2020-06-24_18h18.01.106,TranslationElicitation_eng-prolific-spa,3.2.4,Win32,60,5ee7665a74f20302efda997f,9.572000027,,,,,,
,,,,,,,,,,,,,,,,,,,,,,,,,,,,,,,,,,,,,,,,,,,,,1,0,5,0,1,4,1,arbol,Spanish,Sounds/spa_arbol.mp3,2020-06-24_18h18.01.106,TranslationElicitation_eng-prolific-spa,3.2.4,Win32,60,5ee7665a74f20302efda997f,,,,,,,
,,,,,,,,,,,,,,,,,,,,,,,,,,,,,,,,,,,,,,,,,h,14.68700004,H,FALSE,1,0,5,2,1,4,26,chaqueta,Spanish,Sounds/spa_chaqueta.mp3,2020-06-24_18h18.01.106,TranslationElicitation_eng-prolific-spa,3.2.4,Win32,60,5ee7665a74f20302efda997f,,,,,,,
,,,,,,,,,,,,,,,,,,,,,,,,,,,,,,,,,,,,,,,,,o,15.12000012,HO,FALSE,1,0,5,2,1,4,26,chaqueta,Spanish,Sounds/spa_chaqueta.mp3,2020-06-24_18h18.01.106,TranslationElicitation_eng-prolific-spa,3.2.4,Win32,60,5ee7665a74f20302efda997f,,,,,,,
,,,,,,,,,,,,,,,,,,,,,,,,,,,,,,,,,,,,,,,,,w,15.25400019,HOW,FALSE,1,0,5,2,1,4,26,chaqueta,Spanish,Sounds/spa_chaqueta.mp3,2020-06-24_18h18.01.106,TranslationElicitation_eng-prolific-spa,3.2.4,Win32,60,5ee7665a74f20302efda997f,,,,,,,
,,,,,,,,,,,,,,,,,,,,,,,,,,,,,,,,,,,,,,,,,space,15.65400004,HOW ,FALSE,1,0,5,2,1,4,26,chaqueta,Spanish,Sounds/spa_chaqueta.mp3,2020-06-24_18h18.01.106,TranslationElicitation_eng-prolific-spa,3.2.4,Win32,60,5ee7665a74f20302efda997f,,,,,,,
,,,,,,,,,,,,,,,,,,,,,,,,,,,,,,,,,,,,,,,,,a,15.72200012,HOW A,FALSE,1,0,5,2,1,4,26,chaqueta,Spanish,Sounds/spa_chaqueta.mp3,2020-06-24_18h18.01.106,TranslationElicitation_eng-prolific-spa,3.2.4,Win32,60,5ee7665a74f20302efda997f,,,,,,,
,,,,,,,,,,,,,,,,,,,,,,,,,,,,,,,,,,,,,,,,,r,16.15500021,HOW AR,FALSE,1,0,5,2,1,4,26,chaqueta,Spanish,Sounds/spa_chaqueta.mp3,2020-06-24_18h18.01.106,TranslationElicitation_eng-prolific-spa,3.2.4,Win32,60,5ee7665a74f20302efda997f,,,,,,,
,,,,,,,,,,,,,,,,,,,,,,,,,,,,,,,,,,,,,,,,,e,16.32300019,HOW ARE,FALSE,1,0,5,2,1,4,26,chaqueta,Spanish,Sounds/spa_chaqueta.mp3,2020-06-24_18h18.01.106,TranslationElicitation_eng-prolific-spa,3.2.4,Win32,60,5ee7665a74f20302efda997f,,,,,,,
,,,,,,,,,,,,,,,,,,,,,,,,,,,,,,,,,,,,,,,,,space,16.45500016,HOW ARE ,FALSE,1,0,5,2,1,4,26,chaqueta,Spanish,Sounds/spa_chaqueta.mp3,2020-06-24_18h18.01.106,TranslationElicitation_eng-prolific-spa,3.2.4,Win32,60,5ee7665a74f20302efda997f,,,,,,,
,,,,,,,,,,,,,,,,,,,,,,,,,,,,,,,,,,,,,,,,,y,16.62200022,HOW ARE Y,FALSE,1,0,5,2,1,4,26,chaqueta,Spanish,Sounds/spa_chaqueta.mp3,2020-06-24_18h18.01.106,TranslationElicitation_eng-prolific-spa,3.2.4,Win32,60,5ee7665a74f20302efda997f,,,,,,,
,,,,,,,,,,,,,,,,,,,,,,,,,,,,,,,,,,,,,,,,,o,16.66100001,HOW ARE YO,FALSE,1,0,5,2,1,4,26,chaqueta,Spanish,Sounds/spa_chaqueta.mp3,2020-06-24_18h18.01.106,TranslationElicitation_eng-prolific-spa,3.2.4,Win32,60,5ee7665a74f20302efda997f,,,,,,,
,,,,,,,,,,,,,,,,,,,,,,,,,,,,,,,,,,,,,,,,,u,16.75500011,HOW ARE YOU,FALSE,1,0,5,2,1,4,26,chaqueta,Spanish,Sounds/spa_chaqueta.mp3,2020-06-24_18h18.01.106,TranslationElicitation_eng-prolific-spa,3.2.4,Win32,60,5ee7665a74f20302efda997f,,,,,,,
,,,,,,,,,,,,,,,,,,,,,,,,,,,,,,,,,,,,,,,,,return,17.42200017,HOW ARE YOU,FALSE,1,0,5,2,1,4,26,chaqueta,Spanish,Sounds/spa_chaqueta.mp3,2020-06-24_18h18.01.106,TranslationElicitation_eng-prolific-spa,3.2.4,Win32,60,5ee7665a74f20302efda997f,17.42200017,,,,,,
,,,,,,,,,,,,,,,,,,,,,,,,,,,,,,,,,,,,,,,,,,,,,1,0,5,2,1,4,26,chaqueta,Spanish,Sounds/spa_chaqueta.mp3,2020-06-24_18h18.01.106,TranslationElicitation_eng-prolific-spa,3.2.4,Win32,60,5ee7665a74f20302efda997f,,,,,,,
,,,,,,,,,,,,,,,,,,,,,,,,,,,,,,,,,,,,,,,,,d,5.718999863,D,FALSE,1,0,5,1,1,4,30,corona,Spanish,Sounds/spa_corona.mp3,2020-06-24_18h18.01.106,TranslationElicitation_eng-prolific-spa,3.2.4,Win32,60,5ee7665a74f20302efda997f,,,,,,,
,,,,,,,,,,,,,,,,,,,,,,,,,,,,,,,,,,,,,,,,,r,5.90199995,DR,FALSE,1,0,5,1,1,4,30,corona,Spanish,Sounds/spa_corona.mp3,2020-06-24_18h18.01.106,TranslationElicitation_eng-prolific-spa,3.2.4,Win32,60,5ee7665a74f20302efda997f,,,,,,,
,,,,,,,,,,,,,,,,,,,,,,,,,,,,,,,,,,,,,,,,,i,6.018999815,DRI,FALSE,1,0,5,1,1,4,30,corona,Spanish,Sounds/spa_corona.mp3,2020-06-24_18h18.01.106,TranslationElicitation_eng-prolific-spa,3.2.4,Win32,60,5ee7665a74f20302efda997f,,,,,,,
,,,,,,,,,,,,,,,,,,,,,,,,,,,,,,,,,,,,,,,,,n,6.13499999,DRIN,FALSE,1,0,5,1,1,4,30,corona,Spanish,Sounds/spa_corona.mp3,2020-06-24_18h18.01.106,TranslationElicitation_eng-prolific-spa,3.2.4,Win32,60,5ee7665a74f20302efda997f,,,,,,,
,,,,,,,,,,,,,,,,,,,,,,,,,,,,,,,,,,,,,,,,,k,6.235999823,DRINK,FALSE,1,0,5,1,1,4,30,corona,Spanish,Sounds/spa_corona.mp3,2020-06-24_18h18.01.106,TranslationElicitation_eng-prolific-spa,3.2.4,Win32,60,5ee7665a74f20302efda997f,,,,,,,
,,,,,,,,,,,,,,,,,,,,,,,,,,,,,,,,,,,,,,,,,s,6.286000013,DRINKS,FALSE,1,0,5,1,1,4,30,corona,Spanish,Sounds/spa_corona.mp3,2020-06-24_18h18.01.106,TranslationElicitation_eng-prolific-spa,3.2.4,Win32,60,5ee7665a74f20302efda997f,,,,,,,
,,,,,,,,,,,,,,,,,,,,,,,,,,,,,,,,,,,,,,,,,return,7.486999989,DRINKS,FALSE,1,0,5,1,1,4,30,corona,Spanish,Sounds/spa_corona.mp3,2020-06-24_18h18.01.106,TranslationElicitation_eng-prolific-spa,3.2.4,Win32,60,5ee7665a74f20302efda997f,7.486999989,,,,,,
,,,,,,,,,,,,,,,,,,,,,,,,,,,,,,,,,,,,,,,,,,,,,1,0,5,1,1,4,30,corona,Spanish,Sounds/spa_corona.mp3,2020-06-24_18h18.01.106,TranslationElicitation_eng-prolific-spa,3.2.4,Win32,60,5ee7665a74f20302efda997f,,,,,,,
,,,,,,,,,,,,,,,,,,,,,,,,,,,,,,,,,,,,,,,,,h,20.52700019,H,FALSE,,,,,,,49,hormiga,Spanish,Sounds/spa_hormiga.mp3,2020-06-24_18h18.01.106,TranslationElicitation_eng-prolific-spa,3.2.4,Win32,60,5ee7665a74f20302efda997f,,1,0,98,45,1,97
,,,,,,,,,,,,,,,,,,,,,,,,,,,,,,,,,,,,,,,,,o,20.648,HO,FALSE,,,,,,,49,hormiga,Spanish,Sounds/spa_hormiga.mp3,2020-06-24_18h18.01.106,TranslationElicitation_eng-prolific-spa,3.2.4,Win32,60,5ee7665a74f20302efda997f,,1,0,98,45,1,97
,,,,,,,,,,,,,,,,,,,,,,,,,,,,,,,,,,,,,,,,,w,20.99900007,HOW,FALSE,,,,,,,49,hormiga,Spanish,Sounds/spa_hormiga.mp3,2020-06-24_18h18.01.106,TranslationElicitation_eng-prolific-spa,3.2.4,Win32,60,5ee7665a74f20302efda997f,,1,0,98,45,1,97
,,,,,,,,,,,,,,,,,,,,,,,,,,,,,,,,,,,,,,,,,space,21.36500001,HOW ,FALSE,,,,,,,49,hormiga,Spanish,Sounds/spa_hormiga.mp3,2020-06-24_18h18.01.106,TranslationElicitation_eng-prolific-spa,3.2.4,Win32,60,5ee7665a74f20302efda997f,,1,0,98,45,1,97
,,,,,,,,,,,,,,,,,,,,,,,,,,,,,,,,,,,,,,,,,a,21.46600008,HOW A,FALSE,,,,,,,49,hormiga,Spanish,Sounds/spa_hormiga.mp3,2020-06-24_18h18.01.106,TranslationElicitation_eng-prolific-spa,3.2.4,Win32,60,5ee7665a74f20302efda997f,,1,0,98,45,1,97
,,,,,,,,,,,,,,,,,,,,,,,,,,,,,,,,,,,,,,,,,r,21.64900017,HOW AR,FALSE,,,,,,,49,hormiga,Spanish,Sounds/spa_hormiga.mp3,2020-06-24_18h18.01.106,TranslationElicitation_eng-prolific-spa,3.2.4,Win32,60,5ee7665a74f20302efda997f,,1,0,98,45,1,97
,,,,,,,,,,,,,,,,,,,,,,,,,,,,,,,,,,,,,,,,,e,21.81500006,HOW ARE,FALSE,,,,,,,49,hormiga,Spanish,Sounds/spa_hormiga.mp3,2020-06-24_18h18.01.106,TranslationElicitation_eng-prolific-spa,3.2.4,Win32,60,5ee7665a74f20302efda997f,,1,0,98,45,1,97
,,,,,,,,,,,,,,,,,,,,,,,,,,,,,,,,,,,,,,,,,space,21.92000008,HOW ARE ,FALSE,,,,,,,49,hormiga,Spanish,Sounds/spa_hormiga.mp3,2020-06-24_18h18.01.106,TranslationElicitation_eng-prolific-spa,3.2.4,Win32,60,5ee7665a74f20302efda997f,,1,0,98,45,1,97
,,,,,,,,,,,,,,,,,,,,,,,,,,,,,,,,,,,,,,,,,y,22.04900002,HOW ARE Y,FALSE,,,,,,,49,hormiga,Spanish,Sounds/spa_hormiga.mp3,2020-06-24_18h18.01.106,TranslationElicitation_eng-prolific-spa,3.2.4,Win32,60,5ee7665a74f20302efda997f,,1,0,98,45,1,97
,,,,,,,,,,,,,,,,,,,,,,,,,,,,,,,,,,,,,,,,,o,22.13200021,HOW ARE YO,FALSE,,,,,,,49,hormiga,Spanish,Sounds/spa_hormiga.mp3,2020-06-24_18h18.01.106,TranslationElicitation_eng-prolific-spa,3.2.4,Win32,60,5ee7665a74f20302efda997f,,1,0,98,45,1,97
,,,,,,,,,,,,,,,,,,,,,,,,,,,,,,,,,,,,,,,,,u,22.21600008,HOW ARE YOU,FALSE,,,,,,,49,hormiga,Spanish,Sounds/spa_hormiga.mp3,2020-06-24_18h18.01.106,TranslationElicitation_eng-prolific-spa,3.2.4,Win32,60,5ee7665a74f20302efda997f,,1,0,98,45,1,97
,,,,,,,,,,,,,,,,,,,,,,,,,,,,,,,,,,,,,,,,,return,22.71600008,HOW ARE YOU,FALSE,,,,,,,49,hormiga,Spanish,Sounds/spa_hormiga.mp3,2020-06-24_18h18.01.106,TranslationElicitation_eng-prolific-spa,3.2.4,Win32,60,5ee7665a74f20302efda997f,22.71600008,1,0,98,45,1,97
,,,,,,,,,,,,,,,,,,,,,,,,,,,,,,,,,,,,,,,,,,,,,,,,,,,49,hormiga,Spanish,Sounds/spa_hormiga.mp3,2020-06-24_18h18.01.106,TranslationElicitation_eng-prolific-spa,3.2.4,Win32,60,5ee7665a74f20302efda997f,,1,0,98,45,1,97
,,,,,,,,,,,,,,,,,,,,,,,,,,,,,,,,,,,,,,,,,i,9.690000057,I,FALSE,,,,,,,57,loro,Spanish,Sounds/spa_loro.mp3,2020-06-24_18h18.01.106,TranslationElicitation_eng-prolific-spa,3.2.4,Win32,60,5ee7665a74f20302efda997f,,1,0,98,53,1,97
,,,,,,,,,,,,,,,,,,,,,,,,,,,,,,,,,,,,,,,,,apostrophe,10.19200015,I',FALSE,,,,,,,57,loro,Spanish,Sounds/spa_loro.mp3,2020-06-24_18h18.01.106,TranslationElicitation_eng-prolific-spa,3.2.4,Win32,60,5ee7665a74f20302efda997f,,1,0,98,53,1,97
,,,,,,,,,,,,,,,,,,,,,,,,,,,,,,,,,,,,,,,,,m,10.45800018,I'M,FALSE,,,,,,,57,loro,Spanish,Sounds/spa_loro.mp3,2020-06-24_18h18.01.106,TranslationElicitation_eng-prolific-spa,3.2.4,Win32,60,5ee7665a74f20302efda997f,,1,0,98,53,1,97
,,,,,,,,,,,,,,,,,,,,,,,,,,,,,,,,,,,,,,,,,space,10.625,I'M ,FALSE,,,,,,,57,loro,Spanish,Sounds/spa_loro.mp3,2020-06-24_18h18.01.106,TranslationElicitation_eng-prolific-spa,3.2.4,Win32,60,5ee7665a74f20302efda997f,,1,0,98,53,1,97
,,,,,,,,,,,,,,,,,,,,,,,,,,,,,,,,,,,,,,,,,o,10.79200006,I'M O,FALSE,,,,,,,57,loro,Spanish,Sounds/spa_loro.mp3,2020-06-24_18h18.01.106,TranslationElicitation_eng-prolific-spa,3.2.4,Win32,60,5ee7665a74f20302efda997f,,1,0,98,53,1,97
,,,,,,,,,,,,,,,,,,,,,,,,,,,,,,,,,,,,,,,,,k,10.84200001,I'M OK,FALSE,,,,,,,57,loro,Spanish,Sounds/spa_loro.mp3,2020-06-24_18h18.01.106,TranslationElicitation_eng-prolific-spa,3.2.4,Win32,60,5ee7665a74f20302efda997f,,1,0,98,53,1,97
,,,,,,,,,,,,,,,,,,,,,,,,,,,,,,,,,,,,,,,,,a,10.94099998,I'M OKA,FALSE,,,,,,,57,loro,Spanish,Sounds/spa_loro.mp3,2020-06-24_18h18.01.106,TranslationElicitation_eng-prolific-spa,3.2.4,Win32,60,5ee7665a74f20302efda997f,,1,0,98,53,1,97
,,,,,,,,,,,,,,,,,,,,,,,,,,,,,,,,,,,,,,,,,t,11.05900002,I'M OKAT,FALSE,,,,,,,57,loro,Spanish,Sounds/spa_loro.mp3,2020-06-24_18h18.01.106,TranslationElicitation_eng-prolific-spa,3.2.4,Win32,60,5ee7665a74f20302efda997f,,1,0,98,53,1,97
,,,,,,,,,,,,,,,,,,,,,,,,,,,,,,,,,,,,,,,,,backspace,11.80900002,I'M OKA,TRUE,,,,,,,57,loro,Spanish,Sounds/spa_loro.mp3,2020-06-24_18h18.01.106,TranslationElicitation_eng-prolific-spa,3.2.4,Win32,60,5ee7665a74f20302efda997f,,1,0,98,53,1,97
,,,,,,,,,,,,,,,,,,,,,,,,,,,,,,,,,,,,,,,,,y,12.04299998,I'M OKAY,TRUE,,,,,,,57,loro,Spanish,Sounds/spa_loro.mp3,2020-06-24_18h18.01.106,TranslationElicitation_eng-prolific-spa,3.2.4,Win32,60,5ee7665a74f20302efda997f,,1,0,98,53,1,97
,,,,,,,,,,,,,,,,,,,,,,,,,,,,,,,,,,,,,,,,,return,12.37600017,I'M OKAY,TRUE,,,,,,,57,loro,Spanish,Sounds/spa_loro.mp3,2020-06-24_18h18.01.106,TranslationElicitation_eng-prolific-spa,3.2.4,Win32,60,5ee7665a74f20302efda997f,12.37600017,1,0,98,53,1,97
,,,,,,,,,,,,,,,,,,,,,,,,,,,,,,,,,,,,,,,,,,,,,,,,,,,57,loro,Spanish,Sounds/spa_loro.mp3,2020-06-24_18h18.01.106,TranslationElicitation_eng-prolific-spa,3.2.4,Win32,60,5ee7665a74f20302efda997f,,1,0,98,53,1,97
,,,,,,,,,,,,,,,,,,,,,,,,,,,,,,,,,,,,,,,,,g,1.850000143,G,FALSE,,,,,,,47,guitarra,Spanish,Sounds/spa_guitarra.mp3,2020-06-24_18h18.01.106,TranslationElicitation_eng-prolific-spa,3.2.4,Win32,60,5ee7665a74f20302efda997f,,1,0,98,43,1,97
,,,,,,,,,,,,,,,,,,,,,,,,,,,,,,,,,,,,,,,,,u,2.084000111,GU,FALSE,,,,,,,47,guitarra,Spanish,Sounds/spa_guitarra.mp3,2020-06-24_18h18.01.106,TranslationElicitation_eng-prolific-spa,3.2.4,Win32,60,5ee7665a74f20302efda997f,,1,0,98,43,1,97
,,,,,,,,,,,,,,,,,,,,,,,,,,,,,,,,,,,,,,,,,i,2.26699996,GUI,FALSE,,,,,,,47,guitarra,Spanish,Sounds/spa_guitarra.mp3,2020-06-24_18h18.01.106,TranslationElicitation_eng-prolific-spa,3.2.4,Win32,60,5ee7665a74f20302efda997f,,1,0,98,43,1,97
,,,,,,,,,,,,,,,,,,,,,,,,,,,,,,,,,,,,,,,,,t,2.467000008,GUIT,FALSE,,,,,,,47,guitarra,Spanish,Sounds/spa_guitarra.mp3,2020-06-24_18h18.01.106,TranslationElicitation_eng-prolific-spa,3.2.4,Win32,60,5ee7665a74f20302efda997f,,1,0,98,43,1,97
,,,,,,,,,,,,,,,,,,,,,,,,,,,,,,,,,,,,,,,,,a,2.684000015,GUITA,FALSE,,,,,,,47,guitarra,Spanish,Sounds/spa_guitarra.mp3,2020-06-24_18h18.01.106,TranslationElicitation_eng-prolific-spa,3.2.4,Win32,60,5ee7665a74f20302efda997f,,1,0,98,43,1,97
,,,,,,,,,,,,,,,,,,,,,,,,,,,,,,,,,,,,,,,,,r,2.801000118,GUITAR,FALSE,,,,,,,47,guitarra,Spanish,Sounds/spa_guitarra.mp3,2020-06-24_18h18.01.106,TranslationElicitation_eng-prolific-spa,3.2.4,Win32,60,5ee7665a74f20302efda997f,,1,0,98,43,1,97
,,,,,,,,,,,,,,,,,,,,,,,,,,,,,,,,,,,,,,,,,return,3.637000084,GUITAR,FALSE,,,,,,,47,guitarra,Spanish,Sounds/spa_guitarra.mp3,2020-06-24_18h18.01.106,TranslationElicitation_eng-prolific-spa,3.2.4,Win32,60,5ee7665a74f20302efda997f,3.637000084,1,0,98,43,1,97
,,,,,,,,,,,,,,,,,,,,,,,,,,,,,,,,,,,,,,,,,,,,,,,,,,,47,guitarra,Spanish,Sounds/spa_guitarra.mp3,2020-06-24_18h18.01.106,TranslationElicitation_eng-prolific-spa,3.2.4,Win32,60,5ee7665a74f20302efda997f,,1,0,98,43,1,97
,,,,,,,,,,,,,,,,,,,,,,,,,,,,,,,,,,,,,,,,,p,2.601999998,P,FALSE,,,,,,,11,boton,Spanish,Sounds/spa_boton.mp3,2020-06-24_18h18.01.106,TranslationElicitation_eng-prolific-spa,3.2.4,Win32,60,5ee7665a74f20302efda997f,,1,0,98,9,1,97
,,,,,,,,,,,,,,,,,,,,,,,,,,,,,,,,,,,,,,,,,a,2.700999975,PA,FALSE,,,,,,,11,boton,Spanish,Sounds/spa_boton.mp3,2020-06-24_18h18.01.106,TranslationElicitation_eng-prolific-spa,3.2.4,Win32,60,5ee7665a74f20302efda997f,,1,0,98,9,1,97
,,,,,,,,,,,,,,,,,,,,,,,,,,,,,,,,,,,,,,,,,r,3.001999855,PAR,FALSE,,,,,,,11,boton,Spanish,Sounds/spa_boton.mp3,2020-06-24_18h18.01.106,TranslationElicitation_eng-prolific-spa,3.2.4,Win32,60,5ee7665a74f20302efda997f,,1,0,98,9,1,97
,,,,,,,,,,,,,,,,,,,,,,,,,,,,,,,,,,,,,,,,,d,3.201999903,PARD,FALSE,,,,,,,11,boton,Spanish,Sounds/spa_boton.mp3,2020-06-24_18h18.01.106,TranslationElicitation_eng-prolific-spa,3.2.4,Win32,60,5ee7665a74f20302efda997f,,1,0,98,9,1,97
,,,,,,,,,,,,,,,,,,,,,,,,,,,,,,,,,,,,,,,,,o,3.268999815,PARDO,FALSE,,,,,,,11,boton,Spanish,Sounds/spa_boton.mp3,2020-06-24_18h18.01.106,TranslationElicitation_eng-prolific-spa,3.2.4,Win32,60,5ee7665a74f20302efda997f,,1,0,98,9,1,97
,,,,,,,,,,,,,,,,,,,,,,,,,,,,,,,,,,,,,,,,,n,3.368999958,PARDON,FALSE,,,,,,,11,boton,Spanish,Sounds/spa_boton.mp3,2020-06-24_18h18.01.106,TranslationElicitation_eng-prolific-spa,3.2.4,Win32,60,5ee7665a74f20302efda997f,,1,0,98,9,1,97
,,,,,,,,,,,,,,,,,,,,,,,,,,,,,,,,,,,,,,,,,return,4.101999998,PARDON,FALSE,,,,,,,11,boton,Spanish,Sounds/spa_boton.mp3,2020-06-24_18h18.01.106,TranslationElicitation_eng-prolific-spa,3.2.4,Win32,60,5ee7665a74f20302efda997f,4.101999998,1,0,98,9,1,97
,,,,,,,,,,,,,,,,,,,,,,,,,,,,,,,,,,,,,,,,,,,,,,,,,,,11,boton,Spanish,Sounds/spa_boton.mp3,2020-06-24_18h18.01.106,TranslationElicitation_eng-prolific-spa,3.2.4,Win32,60,5ee7665a74f20302efda997f,,1,0,98,9,1,97
,,,,,,,,,,,,,,,,,,,,,,,,,,,,,,,,,,,,,,,,,i,3.325000048,I,FALSE,,,,,,,52,lapiz,Spanish,Sounds/spa_lapiz.mp3,2020-06-24_18h18.01.106,TranslationElicitation_eng-prolific-spa,3.2.4,Win32,60,5ee7665a74f20302efda997f,,1,0,98,48,1,97
,,,,,,,,,,,,,,,,,,,,,,,,,,,,,,,,,,,,,,,,,apostrophe,3.950999975,I',FALSE,,,,,,,52,lapiz,Spanish,Sounds/spa_lapiz.mp3,2020-06-24_18h18.01.106,TranslationElicitation_eng-prolific-spa,3.2.4,Win32,60,5ee7665a74f20302efda997f,,1,0,98,48,1,97
,,,,,,,,,,,,,,,,,,,,,,,,,,,,,,,,,,,,,,,,,m,5.151000023,I'M,FALSE,,,,,,,52,lapiz,Spanish,Sounds/spa_lapiz.mp3,2020-06-24_18h18.01.106,TranslationElicitation_eng-prolific-spa,3.2.4,Win32,60,5ee7665a74f20302efda997f,,1,0,98,48,1,97
,,,,,,,,,,,,,,,,,,,,,,,,,,,,,,,,,,,,,,,,,space,5.318000078,I'M ,FALSE,,,,,,,52,lapiz,Spanish,Sounds/spa_lapiz.mp3,2020-06-24_18h18.01.106,TranslationElicitation_eng-prolific-spa,3.2.4,Win32,60,5ee7665a74f20302efda997f,,1,0,98,48,1,97
,,,,,,,,,,,,,,,,,,,,,,,,,,,,,,,,,,,,,,,,,h,5.450999975,I'M H,FALSE,,,,,,,52,lapiz,Spanish,Sounds/spa_lapiz.mp3,2020-06-24_18h18.01.106,TranslationElicitation_eng-prolific-spa,3.2.4,Win32,60,5ee7665a74f20302efda997f,,1,0,98,48,1,97
,,,,,,,,,,,,,,,,,,,,,,,,,,,,,,,,,,,,,,,,,a,5.568000078,I'M HA,FALSE,,,,,,,52,lapiz,Spanish,Sounds/spa_lapiz.mp3,2020-06-24_18h18.01.106,TranslationElicitation_eng-prolific-spa,3.2.4,Win32,60,5ee7665a74f20302efda997f,,1,0,98,48,1,97
,,,,,,,,,,,,,,,,,,,,,,,,,,,,,,,,,,,,,,,,,p,5.651000023,I'M HAP,FALSE,,,,,,,52,lapiz,Spanish,Sounds/spa_lapiz.mp3,2020-06-24_18h18.01.106,TranslationElicitation_eng-prolific-spa,3.2.4,Win32,60,5ee7665a74f20302efda997f,,1,0,98,48,1,97
,,,,,,,,,,,,,,,,,,,,,,,,,,,,,,,,,,,,,,,,,p,5.784999847,I'M HAPP,FALSE,,,,,,,52,lapiz,Spanish,Sounds/spa_lapiz.mp3,2020-06-24_18h18.01.106,TranslationElicitation_eng-prolific-spa,3.2.4,Win32,60,5ee7665a74f20302efda997f,,1,0,98,48,1,97
,,,,,,,,,,,,,,,,,,,,,,,,,,,,,,,,,,,,,,,,,y,5.924000025,I'M HAPPY,FALSE,,,,,,,52,lapiz,Spanish,Sounds/spa_lapiz.mp3,2020-06-24_18h18.01.106,TranslationElicitation_eng-prolific-spa,3.2.4,Win32,60,5ee7665a74f20302efda997f,,1,0,98,48,1,97
,,,,,,,,,,,,,,,,,,,,,,,,,,,,,,,,,,,,,,,,,return,6.201999903,I'M HAPPY,FALSE,,,,,,,52,lapiz,Spanish,Sounds/spa_lapiz.mp3,2020-06-24_18h18.01.106,TranslationElicitation_eng-prolific-spa,3.2.4,Win32,60,5ee7665a74f20302efda997f,6.201999903,1,0,98,48,1,97
,,,,,,,,,,,,,,,,,,,,,,,,,,,,,,,,,,,,,,,,,,,,,,,,,,,52,lapiz,Spanish,Sounds/spa_lapiz.mp3,2020-06-24_18h18.01.106,TranslationElicitation_eng-prolific-spa,3.2.4,Win32,60,5ee7665a74f20302efda997f,,1,0,98,48,1,97
,,,,,,,,,,,,,,,,,,,,,,,,,,,,,,,,,,,,,,,,,i,10.5480001,I,FALSE,,,,,,,9,boli,Spanish,Sounds/spa_boli.mp3,2020-06-24_18h18.01.106,TranslationElicitation_eng-prolific-spa,3.2.4,Win32,60,5ee7665a74f20302efda997f,,1,0,98,7,1,97
,,,,,,,,,,,,,,,,,,,,,,,,,,,,,,,,,,,,,,,,,apostrophe,11.05599999,I',FALSE,,,,,,,9,boli,Spanish,Sounds/spa_boli.mp3,2020-06-24_18h18.01.106,TranslationElicitation_eng-prolific-spa,3.2.4,Win32,60,5ee7665a74f20302efda997f,,1,0,98,7,1,97
,,,,,,,,,,,,,,,,,,,,,,,,,,,,,,,,,,,,,,,,,m,11.30699992,I'M,FALSE,,,,,,,9,boli,Spanish,Sounds/spa_boli.mp3,2020-06-24_18h18.01.106,TranslationElicitation_eng-prolific-spa,3.2.4,Win32,60,5ee7665a74f20302efda997f,,1,0,98,7,1,97
,,,,,,,,,,,,,,,,,,,,,,,,,,,,,,,,,,,,,,,,,space,11.45700002,I'M ,FALSE,,,,,,,9,boli,Spanish,Sounds/spa_boli.mp3,2020-06-24_18h18.01.106,TranslationElicitation_eng-prolific-spa,3.2.4,Win32,60,5ee7665a74f20302efda997f,,1,0,98,7,1,97
,,,,,,,,,,,,,,,,,,,,,,,,,,,,,,,,,,,,,,,,,g,11.67400002,I'M G,FALSE,,,,,,,9,boli,Spanish,Sounds/spa_boli.mp3,2020-06-24_18h18.01.106,TranslationElicitation_eng-prolific-spa,3.2.4,Win32,60,5ee7665a74f20302efda997f,,1,0,98,7,1,97
,,,,,,,,,,,,,,,,,,,,,,,,,,,,,,,,,,,,,,,,,r,11.85700011,I'M GR,FALSE,,,,,,,9,boli,Spanish,Sounds/spa_boli.mp3,2020-06-24_18h18.01.106,TranslationElicitation_eng-prolific-spa,3.2.4,Win32,60,5ee7665a74f20302efda997f,,1,0,98,7,1,97
,,,,,,,,,,,,,,,,,,,,,,,,,,,,,,,,,,,,,,,,,e,11.99000001,I'M GRE,FALSE,,,,,,,9,boli,Spanish,Sounds/spa_boli.mp3,2020-06-24_18h18.01.106,TranslationElicitation_eng-prolific-spa,3.2.4,Win32,60,5ee7665a74f20302efda997f,,1,0,98,7,1,97
,,,,,,,,,,,,,,,,,,,,,,,,,,,,,,,,,,,,,,,,,a,12.05900002,I'M GREA,FALSE,,,,,,,9,boli,Spanish,Sounds/spa_boli.mp3,2020-06-24_18h18.01.106,TranslationElicitation_eng-prolific-spa,3.2.4,Win32,60,5ee7665a74f20302efda997f,,1,0,98,7,1,97
,,,,,,,,,,,,,,,,,,,,,,,,,,,,,,,,,,,,,,,,,t,12.20700002,I'M GREAT,FALSE,,,,,,,9,boli,Spanish,Sounds/spa_boli.mp3,2020-06-24_18h18.01.106,TranslationElicitation_eng-prolific-spa,3.2.4,Win32,60,5ee7665a74f20302efda997f,,1,0,98,7,1,97
,,,,,,,,,,,,,,,,,,,,,,,,,,,,,,,,,,,,,,,,,return,12.82400012,I'M GREAT,FALSE,,,,,,,9,boli,Spanish,Sounds/spa_boli.mp3,2020-06-24_18h18.01.106,TranslationElicitation_eng-prolific-spa,3.2.4,Win32,60,5ee7665a74f20302efda997f,12.82400012,1,0,98,7,1,97
,,,,,,,,,,,,,,,,,,,,,,,,,,,,,,,,,,,,,,,,,,,,,,,,,,,9,boli,Spanish,Sounds/spa_boli.mp3,2020-06-24_18h18.01.106,TranslationElicitation_eng-prolific-spa,3.2.4,Win32,60,5ee7665a74f20302efda997f,,1,0,98,7,1,97
,,,,,,,,,,,,,,,,,,,,,,,,,,,,,,,,,,,,,,,,,i,2.983999968,I,FALSE,,,,,,,88,plato,Spanish,Sounds/spa_plato.mp3,2020-06-24_18h18.01.106,TranslationElicitation_eng-prolific-spa,3.2.4,Win32,60,5ee7665a74f20302efda997f,,1,0,98,83,1,97
,,,,,,,,,,,,,,,,,,,,,,,,,,,,,,,,,,,,,,,,,apostrophe,3.685000181,I',FALSE,,,,,,,88,plato,Spanish,Sounds/spa_plato.mp3,2020-06-24_18h18.01.106,TranslationElicitation_eng-prolific-spa,3.2.4,Win32,60,5ee7665a74f20302efda997f,,1,0,98,83,1,97
,,,,,,,,,,,,,,,,,,,,,,,,,,,,,,,,,,,,,,,,,m,3.917999983,I'M,FALSE,,,,,,,88,plato,Spanish,Sounds/spa_plato.mp3,2020-06-24_18h18.01.106,TranslationElicitation_eng-prolific-spa,3.2.4,Win32,60,5ee7665a74f20302efda997f,,1,0,98,83,1,97
,,,,,,,,,,,,,,,,,,,,,,,,,,,,,,,,,,,,,,,,,space,4.101999998,I'M ,FALSE,,,,,,,88,plato,Spanish,Sounds/spa_plato.mp3,2020-06-24_18h18.01.106,TranslationElicitation_eng-prolific-spa,3.2.4,Win32,60,5ee7665a74f20302efda997f,,1,0,98,83,1,97
,,,,,,,,,,,,,,,,,,,,,,,,,,,,,,,,,,,,,,,,,p,4.519000053,I'M P,FALSE,,,,,,,88,plato,Spanish,Sounds/spa_plato.mp3,2020-06-24_18h18.01.106,TranslationElicitation_eng-prolific-spa,3.2.4,Win32,60,5ee7665a74f20302efda997f,,1,0,98,83,1,97
,,,,,,,,,,,,,,,,,,,,,,,,,,,,,,,,,,,,,,,,,backspace,4.851999998,I'M ,TRUE,,,,,,,88,plato,Spanish,Sounds/spa_plato.mp3,2020-06-24_18h18.01.106,TranslationElicitation_eng-prolific-spa,3.2.4,Win32,60,5ee7665a74f20302efda997f,,1,0,98,83,1,97
,,,,,,,,,,,,,,,,,,,,,,,,,,,,,,,,,,,,,,,,,a,5.052000046,I'M A,TRUE,,,,,,,88,plato,Spanish,Sounds/spa_plato.mp3,2020-06-24_18h18.01.106,TranslationElicitation_eng-prolific-spa,3.2.4,Win32,60,5ee7665a74f20302efda997f,,1,0,98,83,1,97
,,,,,,,,,,,,,,,,,,,,,,,,,,,,,,,,,,,,,,,,,v,5.169000149,I'M AV,TRUE,,,,,,,88,plato,Spanish,Sounds/spa_plato.mp3,2020-06-24_18h18.01.106,TranslationElicitation_eng-prolific-spa,3.2.4,Win32,60,5ee7665a74f20302efda997f,,1,0,98,83,1,97
,,,,,,,,,,,,,,,,,,,,,,,,,,,,,,,,,,,,,,,,,e,5.302000046,I'M AVE,TRUE,,,,,,,88,plato,Spanish,Sounds/spa_plato.mp3,2020-06-24_18h18.01.106,TranslationElicitation_eng-prolific-spa,3.2.4,Win32,60,5ee7665a74f20302efda997f,,1,0,98,83,1,97
,,,,,,,,,,,,,,,,,,,,,,,,,,,,,,,,,,,,,,,,,r,6.753000021,I'M AVER,TRUE,,,,,,,88,plato,Spanish,Sounds/spa_plato.mp3,2020-06-24_18h18.01.106,TranslationElicitation_eng-prolific-spa,3.2.4,Win32,60,5ee7665a74f20302efda997f,,1,0,98,83,1,97
,,,,,,,,,,,,,,,,,,,,,,,,,,,,,,,,,,,,,,,,,a,6.937000036,I'M AVERA,TRUE,,,,,,,88,plato,Spanish,Sounds/spa_plato.mp3,2020-06-24_18h18.01.106,TranslationElicitation_eng-prolific-spa,3.2.4,Win32,60,5ee7665a74f20302efda997f,,1,0,98,83,1,97
,,,,,,,,,,,,,,,,,,,,,,,,,,,,,,,,,,,,,,,,,g,7.019999981,I'M AVERAG,TRUE,,,,,,,88,plato,Spanish,Sounds/spa_plato.mp3,2020-06-24_18h18.01.106,TranslationElicitation_eng-prolific-spa,3.2.4,Win32,60,5ee7665a74f20302efda997f,,1,0,98,83,1,97
,,,,,,,,,,,,,,,,,,,,,,,,,,,,,,,,,,,,,,,,,e,7.103000164,I'M AVERAGE,TRUE,,,,,,,88,plato,Spanish,Sounds/spa_plato.mp3,2020-06-24_18h18.01.106,TranslationElicitation_eng-prolific-spa,3.2.4,Win32,60,5ee7665a74f20302efda997f,,1,0,98,83,1,97
,,,,,,,,,,,,,,,,,,,,,,,,,,,,,,,,,,,,,,,,,return,7.503999949,I'M AVERAGE,TRUE,,,,,,,88,plato,Spanish,Sounds/spa_plato.mp3,2020-06-24_18h18.01.106,TranslationElicitation_eng-prolific-spa,3.2.4,Win32,60,5ee7665a74f20302efda997f,7.503999949,1,0,98,83,1,97
,,,,,,,,,,,,,,,,,,,,,,,,,,,,,,,,,,,,,,,,,,,,,,,,,,,88,plato,Spanish,Sounds/spa_plato.mp3,2020-06-24_18h18.01.106,TranslationElicitation_eng-prolific-spa,3.2.4,Win32,60,5ee7665a74f20302efda997f,,1,0,98,83,1,97
,,,,,,,,,,,,,,,,,,,,,,,,,,,,,,,,,,,,,,,,,i,2.950999975,I,FALSE,,,,,,,13,buho,Spanish,Sounds/spa_buho.mp3,2020-06-24_18h18.01.106,TranslationElicitation_eng-prolific-spa,3.2.4,Win32,60,5ee7665a74f20302efda997f,,1,0,98,11,1,97
,,,,,,,,,,,,,,,,,,,,,,,,,,,,,,,,,,,,,,,,,apostrophe,3.38499999,I',FALSE,,,,,,,13,buho,Spanish,Sounds/spa_buho.mp3,2020-06-24_18h18.01.106,TranslationElicitation_eng-prolific-spa,3.2.4,Win32,60,5ee7665a74f20302efda997f,,1,0,98,11,1,97
,,,,,,,,,,,,,,,,,,,,,,,,,,,,,,,,,,,,,,,,,backspace,4.052000046,I,TRUE,,,,,,,13,buho,Spanish,Sounds/spa_buho.mp3,2020-06-24_18h18.01.106,TranslationElicitation_eng-prolific-spa,3.2.4,Win32,60,5ee7665a74f20302efda997f,,1,0,98,11,1,97
,,,,,,,,,,,,,,,,,,,,,,,,,,,,,,,,,,,,,,,,,m,4.235000134,IM,TRUE,,,,,,,13,buho,Spanish,Sounds/spa_buho.mp3,2020-06-24_18h18.01.106,TranslationElicitation_eng-prolific-spa,3.2.4,Win32,60,5ee7665a74f20302efda997f,,1,0,98,11,1,97
,,,,,,,,,,,,,,,,,,,,,,,,,,,,,,,,,,,,,,,,,backspace,4.934999943,I,TRUE,,,,,,,13,buho,Spanish,Sounds/spa_buho.mp3,2020-06-24_18h18.01.106,TranslationElicitation_eng-prolific-spa,3.2.4,Win32,60,5ee7665a74f20302efda997f,,1,0,98,11,1,97
,,,,,,,,,,,,,,,,,,,,,,,,,,,,,,,,,,,,,,,,,apostrophe,5.237999916,I',TRUE,,,,,,,13,buho,Spanish,Sounds/spa_buho.mp3,2020-06-24_18h18.01.106,TranslationElicitation_eng-prolific-spa,3.2.4,Win32,60,5ee7665a74f20302efda997f,,1,0,98,11,1,97
,,,,,,,,,,,,,,,,,,,,,,,,,,,,,,,,,,,,,,,,,m,5.41899991,I'M,TRUE,,,,,,,13,buho,Spanish,Sounds/spa_buho.mp3,2020-06-24_18h18.01.106,TranslationElicitation_eng-prolific-spa,3.2.4,Win32,60,5ee7665a74f20302efda997f,,1,0,98,11,1,97
,,,,,,,,,,,,,,,,,,,,,,,,,,,,,,,,,,,,,,,,,space,5.585999966,I'M ,TRUE,,,,,,,13,buho,Spanish,Sounds/spa_buho.mp3,2020-06-24_18h18.01.106,TranslationElicitation_eng-prolific-spa,3.2.4,Win32,60,5ee7665a74f20302efda997f,,1,0,98,11,1,97
,,,,,,,,,,,,,,,,,,,,,,,,,,,,,,,,,,,,,,,,,n,5.753000021,I'M N,TRUE,,,,,,,13,buho,Spanish,Sounds/spa_buho.mp3,2020-06-24_18h18.01.106,TranslationElicitation_eng-prolific-spa,3.2.4,Win32,60,5ee7665a74f20302efda997f,,1,0,98,11,1,97
,,,,,,,,,,,,,,,,,,,,,,,,,,,,,,,,,,,,,,,,,o,5.819999933,I'M NO,TRUE,,,,,,,13,buho,Spanish,Sounds/spa_buho.mp3,2020-06-24_18h18.01.106,TranslationElicitation_eng-prolific-spa,3.2.4,Win32,60,5ee7665a74f20302efda997f,,1,0,98,11,1,97
,,,,,,,,,,,,,,,,,,,,,,,,,,,,,,,,,,,,,,,,,t,5.920000076,I'M NOT,TRUE,,,,,,,13,buho,Spanish,Sounds/spa_buho.mp3,2020-06-24_18h18.01.106,TranslationElicitation_eng-prolific-spa,3.2.4,Win32,60,5ee7665a74f20302efda997f,,1,0,98,11,1,97
,,,,,,,,,,,,,,,,,,,,,,,,,,,,,,,,,,,,,,,,,space,5.986000061,I'M NOT ,TRUE,,,,,,,13,buho,Spanish,Sounds/spa_buho.mp3,2020-06-24_18h18.01.106,TranslationElicitation_eng-prolific-spa,3.2.4,Win32,60,5ee7665a74f20302efda997f,,1,0,98,11,1,97
,,,,,,,,,,,,,,,,,,,,,,,,,,,,,,,,,,,,,,,,,d,6.355000019,I'M NOT D,TRUE,,,,,,,13,buho,Spanish,Sounds/spa_buho.mp3,2020-06-24_18h18.01.106,TranslationElicitation_eng-prolific-spa,3.2.4,Win32,60,5ee7665a74f20302efda997f,,1,0,98,11,1,97
,,,,,,,,,,,,,,,,,,,,,,,,,,,,,,,,,,,,,,,,,o,6.420000076,I'M NOT DO,TRUE,,,,,,,13,buho,Spanish,Sounds/spa_buho.mp3,2020-06-24_18h18.01.106,TranslationElicitation_eng-prolific-spa,3.2.4,Win32,60,5ee7665a74f20302efda997f,,1,0,98,11,1,97
,,,,,,,,,,,,,,,,,,,,,,,,,,,,,,,,,,,,,,,,,i,6.552999973,I'M NOT DOI,TRUE,,,,,,,13,buho,Spanish,Sounds/spa_buho.mp3,2020-06-24_18h18.01.106,TranslationElicitation_eng-prolific-spa,3.2.4,Win32,60,5ee7665a74f20302efda997f,,1,0,98,11,1,97
,,,,,,,,,,,,,,,,,,,,,,,,,,,,,,,,,,,,,,,,,n,6.670000076,I'M NOT DOIN,TRUE,,,,,,,13,buho,Spanish,Sounds/spa_buho.mp3,2020-06-24_18h18.01.106,TranslationElicitation_eng-prolific-spa,3.2.4,Win32,60,5ee7665a74f20302efda997f,,1,0,98,11,1,97
,,,,,,,,,,,,,,,,,,,,,,,,,,,,,,,,,,,,,,,,,g,6.720999956,I'M NOT DOING,TRUE,,,,,,,13,buho,Spanish,Sounds/spa_buho.mp3,2020-06-24_18h18.01.106,TranslationElicitation_eng-prolific-spa,3.2.4,Win32,60,5ee7665a74f20302efda997f,,1,0,98,11,1,97
,,,,,,,,,,,,,,,,,,,,,,,,,,,,,,,,,,,,,,,,,space,6.821000099,I'M NOT DOING ,TRUE,,,,,,,13,buho,Spanish,Sounds/spa_buho.mp3,2020-06-24_18h18.01.106,TranslationElicitation_eng-prolific-spa,3.2.4,Win32,60,5ee7665a74f20302efda997f,,1,0,98,11,1,97
,,,,,,,,,,,,,,,,,,,,,,,,,,,,,,,,,,,,,,,,,w,6.904000044,I'M NOT DOING W,TRUE,,,,,,,13,buho,Spanish,Sounds/spa_buho.mp3,2020-06-24_18h18.01.106,TranslationElicitation_eng-prolific-spa,3.2.4,Win32,60,5ee7665a74f20302efda997f,,1,0,98,11,1,97
,,,,,,,,,,,,,,,,,,,,,,,,,,,,,,,,,,,,,,,,,e,7.008000135,I'M NOT DOING WE,TRUE,,,,,,,13,buho,Spanish,Sounds/spa_buho.mp3,2020-06-24_18h18.01.106,TranslationElicitation_eng-prolific-spa,3.2.4,Win32,60,5ee7665a74f20302efda997f,,1,0,98,11,1,97
,,,,,,,,,,,,,,,,,,,,,,,,,,,,,,,,,,,,,,,,,l,7.171000004,I'M NOT DOING WEL,TRUE,,,,,,,13,buho,Spanish,Sounds/spa_buho.mp3,2020-06-24_18h18.01.106,TranslationElicitation_eng-prolific-spa,3.2.4,Win32,60,5ee7665a74f20302efda997f,,1,0,98,11,1,97
,,,,,,,,,,,,,,,,,,,,,,,,,,,,,,,,,,,,,,,,,l,7.270999908,I'M NOT DOING WELL,TRUE,,,,,,,13,buho,Spanish,Sounds/spa_buho.mp3,2020-06-24_18h18.01.106,TranslationElicitation_eng-prolific-spa,3.2.4,Win32,60,5ee7665a74f20302efda997f,,1,0,98,11,1,97
,,,,,,,,,,,,,,,,,,,,,,,,,,,,,,,,,,,,,,,,,return,7.854000092,I'M NOT DOING WELL,TRUE,,,,,,,13,buho,Spanish,Sounds/spa_buho.mp3,2020-06-24_18h18.01.106,TranslationElicitation_eng-prolific-spa,3.2.4,Win32,60,5ee7665a74f20302efda997f,7.854000092,1,0,98,11,1,97
,,,,,,,,,,,,,,,,,,,,,,,,,,,,,,,,,,,,,,,,,,,,,,,,,,,13,buho,Spanish,Sounds/spa_buho.mp3,2020-06-24_18h18.01.106,TranslationElicitation_eng-prolific-spa,3.2.4,Win32,60,5ee7665a74f20302efda997f,,1,0,98,11,1,97
,,,,,,,,,,,,,,,,,,,,,,,,,,,,,,,,,,,,,,,,,b,4.619999886,B,FALSE,,,,,,,10,botella,Spanish,Sounds/spa_botella.mp3,2020-06-24_18h18.01.106,TranslationElicitation_eng-prolific-spa,3.2.4,Win32,60,5ee7665a74f20302efda997f,,1,0,98,8,1,97
,,,,,,,,,,,,,,,,,,,,,,,,,,,,,,,,,,,,,,,,,o,4.788000107,BO,FALSE,,,,,,,10,botella,Spanish,Sounds/spa_botella.mp3,2020-06-24_18h18.01.106,TranslationElicitation_eng-prolific-spa,3.2.4,Win32,60,5ee7665a74f20302efda997f,,1,0,98,8,1,97
,,,,,,,,,,,,,,,,,,,,,,,,,,,,,,,,,,,,,,,,,t,5.071000099,BOT,FALSE,,,,,,,10,botella,Spanish,Sounds/spa_botella.mp3,2020-06-24_18h18.01.106,TranslationElicitation_eng-prolific-spa,3.2.4,Win32,60,5ee7665a74f20302efda997f,,1,0,98,8,1,97
,,,,,,,,,,,,,,,,,,,,,,,,,,,,,,,,,,,,,,,,,d,5.487999916,BOTD,FALSE,,,,,,,10,botella,Spanish,Sounds/spa_botella.mp3,2020-06-24_18h18.01.106,TranslationElicitation_eng-prolific-spa,3.2.4,Win32,60,5ee7665a74f20302efda997f,,1,0,98,8,1,97
,,,,,,,,,,,,,,,,,,,,,,,,,,,,,,,,,,,,,,,,,a,5.604000092,BOTDA,FALSE,,,,,,,10,botella,Spanish,Sounds/spa_botella.mp3,2020-06-24_18h18.01.106,TranslationElicitation_eng-prolific-spa,3.2.4,Win32,60,5ee7665a74f20302efda997f,,1,0,98,8,1,97
,,,,,,,,,,,,,,,,,,,,,,,,,,,,,,,,,,,,,,,,,y,5.987999916,BOTDAY,FALSE,,,,,,,10,botella,Spanish,Sounds/spa_botella.mp3,2020-06-24_18h18.01.106,TranslationElicitation_eng-prolific-spa,3.2.4,Win32,60,5ee7665a74f20302efda997f,,1,0,98,8,1,97
,,,,,,,,,,,,,,,,,,,,,,,,,,,,,,,,,,,,,,,,,a,6.558000088,BOTDAYA,FALSE,,,,,,,10,botella,Spanish,Sounds/spa_botella.mp3,2020-06-24_18h18.01.106,TranslationElicitation_eng-prolific-spa,3.2.4,Win32,60,5ee7665a74f20302efda997f,,1,0,98,8,1,97
,,,,,,,,,,,,,,,,,,,,,,,,,,,,,,,,,,,,,,,,,backspace,9.282000065,BOTDAY,TRUE,,,,,,,10,botella,Spanish,Sounds/spa_botella.mp3,2020-06-24_18h18.01.106,TranslationElicitation_eng-prolific-spa,3.2.4,Win32,60,5ee7665a74f20302efda997f,,1,0,98,8,1,97
,,,,,,,,,,,,,,,,,,,,,,,,,,,,,,,,,,,,,,,,,backspace,9.507999897,BOTDA,TRUE,,,,,,,10,botella,Spanish,Sounds/spa_botella.mp3,2020-06-24_18h18.01.106,TranslationElicitation_eng-prolific-spa,3.2.4,Win32,60,5ee7665a74f20302efda997f,,1,0,98,8,1,97
,,,,,,,,,,,,,,,,,,,,,,,,,,,,,,,,,,,,,,,,,backspace,9.664999962,BOTD,TRUE,,,,,,,10,botella,Spanish,Sounds/spa_botella.mp3,2020-06-24_18h18.01.106,TranslationElicitation_eng-prolific-spa,3.2.4,Win32,60,5ee7665a74f20302efda997f,,1,0,98,8,1,97
,,,,,,,,,,,,,,,,,,,,,,,,,,,,,,,,,,,,,,,,,backspace,10.04099989,BOT,TRUE,,,,,,,10,botella,Spanish,Sounds/spa_botella.mp3,2020-06-24_18h18.01.106,TranslationElicitation_eng-prolific-spa,3.2.4,Win32,60,5ee7665a74f20302efda997f,,1,0,98,8,1,97
,,,,,,,,,,,,,,,,,,,,,,,,,,,,,,,,,,,,,,,,,t,11.44199991,BOTT,TRUE,,,,,,,10,botella,Spanish,Sounds/spa_botella.mp3,2020-06-24_18h18.01.106,TranslationElicitation_eng-prolific-spa,3.2.4,Win32,60,5ee7665a74f20302efda997f,,1,0,98,8,1,97
,,,,,,,,,,,,,,,,,,,,,,,,,,,,,,,,,,,,,,,,,o,11.52600002,BOTTO,TRUE,,,,,,,10,botella,Spanish,Sounds/spa_botella.mp3,2020-06-24_18h18.01.106,TranslationElicitation_eng-prolific-spa,3.2.4,Win32,60,5ee7665a74f20302efda997f,,1,0,98,8,1,97
,,,,,,,,,,,,,,,,,,,,,,,,,,,,,,,,,,,,,,,,,m,11.60899997,BOTTOM,TRUE,,,,,,,10,botella,Spanish,Sounds/spa_botella.mp3,2020-06-24_18h18.01.106,TranslationElicitation_eng-prolific-spa,3.2.4,Win32,60,5ee7665a74f20302efda997f,,1,0,98,8,1,97
,,,,,,,,,,,,,,,,,,,,,,,,,,,,,,,,,,,,,,,,,return,11.99300003,BOTTOM,TRUE,,,,,,,10,botella,Spanish,Sounds/spa_botella.mp3,2020-06-24_18h18.01.106,TranslationElicitation_eng-prolific-spa,3.2.4,Win32,60,5ee7665a74f20302efda997f,11.99300003,1,0,98,8,1,97
,,,,,,,,,,,,,,,,,,,,,,,,,,,,,,,,,,,,,,,,,,,,,,,,,,,10,botella,Spanish,Sounds/spa_botella.mp3,2020-06-24_18h18.01.106,TranslationElicitation_eng-prolific-spa,3.2.4,Win32,60,5ee7665a74f20302efda997f,,1,0,98,8,1,97
,,,,,,,,,,,,,,,,,,,,,,,,,,,,,,,,,,,,,,,,,m,3.286000013,M,FALSE,,,,,,,62,martillo,Spanish,Sounds/spa_martillo.mp3,2020-06-24_18h18.01.106,TranslationElicitation_eng-prolific-spa,3.2.4,Win32,60,5ee7665a74f20302efda997f,,1,0,98,58,1,97
,,,,,,,,,,,,,,,,,,,,,,,,,,,,,,,,,,,,,,,,,e,3.419000149,ME,FALSE,,,,,,,62,martillo,Spanish,Sounds/spa_martillo.mp3,2020-06-24_18h18.01.106,TranslationElicitation_eng-prolific-spa,3.2.4,Win32,60,5ee7665a74f20302efda997f,,1,0,98,58,1,97
,,,,,,,,,,,,,,,,,,,,,,,,,,,,,,,,,,,,,,,,,d,3.585999966,MED,FALSE,,,,,,,62,martillo,Spanish,Sounds/spa_martillo.mp3,2020-06-24_18h18.01.106,TranslationElicitation_eng-prolific-spa,3.2.4,Win32,60,5ee7665a74f20302efda997f,,1,0,98,58,1,97
,,,,,,,,,,,,,,,,,,,,,,,,,,,,,,,,,,,,,,,,,i,4.085999966,MEDI,FALSE,,,,,,,62,martillo,Spanish,Sounds/spa_martillo.mp3,2020-06-24_18h18.01.106,TranslationElicitation_eng-prolific-spa,3.2.4,Win32,60,5ee7665a74f20302efda997f,,1,0,98,58,1,97
,,,,,,,,,,,,,,,,,,,,,,,,,,,,,,,,,,,,,,,,,u,4.153000116,MEDIU,FALSE,,,,,,,62,martillo,Spanish,Sounds/spa_martillo.mp3,2020-06-24_18h18.01.106,TranslationElicitation_eng-prolific-spa,3.2.4,Win32,60,5ee7665a74f20302efda997f,,1,0,98,58,1,97
,,,,,,,,,,,,,,,,,,,,,,,,,,,,,,,,,,,,,,,,,m,4.386000156,MEDIUM,FALSE,,,,,,,62,martillo,Spanish,Sounds/spa_martillo.mp3,2020-06-24_18h18.01.106,TranslationElicitation_eng-prolific-spa,3.2.4,Win32,60,5ee7665a74f20302efda997f,,1,0,98,58,1,97
,,,,,,,,,,,,,,,,,,,,,,,,,,,,,,,,,,,,,,,,,return,4.802999973,MEDIUM,FALSE,,,,,,,62,martillo,Spanish,Sounds/spa_martillo.mp3,2020-06-24_18h18.01.106,TranslationElicitation_eng-prolific-spa,3.2.4,Win32,60,5ee7665a74f20302efda997f,4.802999973,1,0,98,58,1,97
,,,,,,,,,,,,,,,,,,,,,,,,,,,,,,,,,,,,,,,,,,,,,,,,,,,62,martillo,Spanish,Sounds/spa_martillo.mp3,2020-06-24_18h18.01.106,TranslationElicitation_eng-prolific-spa,3.2.4,Win32,60,5ee7665a74f20302efda997f,,1,0,98,58,1,97
,,,,,,,,,,,,,,,,,,,,,,,,,,,,,,,,,,,,,,,,,s,4.703999996,S,FALSE,,,,,,,93,sol,Spanish,Sounds/spa_sol.mp3,2020-06-24_18h18.01.106,TranslationElicitation_eng-prolific-spa,3.2.4,Win32,60,5ee7665a74f20302efda997f,,1,0,98,88,1,97
,,,,,,,,,,,,,,,,,,,,,,,,,,,,,,,,,,,,,,,,,u,4.771999836,SU,FALSE,,,,,,,93,sol,Spanish,Sounds/spa_sol.mp3,2020-06-24_18h18.01.106,TranslationElicitation_eng-prolific-spa,3.2.4,Win32,60,5ee7665a74f20302efda997f,,1,0,98,88,1,97
,,,,,,,,,,,,,,,,,,,,,,,,,,,,,,,,,,,,,,,,,n,4.886999846,SUN,FALSE,,,,,,,93,sol,Spanish,Sounds/spa_sol.mp3,2020-06-24_18h18.01.106,TranslationElicitation_eng-prolific-spa,3.2.4,Win32,60,5ee7665a74f20302efda997f,,1,0,98,88,1,97
,,,,,,,,,,,,,,,,,,,,,,,,,,,,,,,,,,,,,,,,,return,5.403999805,SUN,FALSE,,,,,,,93,sol,Spanish,Sounds/spa_sol.mp3,2020-06-24_18h18.01.106,TranslationElicitation_eng-prolific-spa,3.2.4,Win32,60,5ee7665a74f20302efda997f,5.403999805,1,0,98,88,1,97
,,,,,,,,,,,,,,,,,,,,,,,,,,,,,,,,,,,,,,,,,,,,,,,,,,,93,sol,Spanish,Sounds/spa_sol.mp3,2020-06-24_18h18.01.106,TranslationElicitation_eng-prolific-spa,3.2.4,Win32,60,5ee7665a74f20302efda997f,,1,0,98,88,1,97
,,,,,,,,,,,,,,,,,,,,,,,,,,,,,,,,,,,,,,,,,t,2.717999935,T,FALSE,,,,,,,101,tren,Spanish,Sounds/spa_tren.mp3,2020-06-24_18h18.01.106,TranslationElicitation_eng-prolific-spa,3.2.4,Win32,60,5ee7665a74f20302efda997f,,1,0,98,95,1,97
,,,,,,,,,,,,,,,,,,,,,,,,,,,,,,,,,,,,,,,,,r,2.868999958,TR,FALSE,,,,,,,101,tren,Spanish,Sounds/spa_tren.mp3,2020-06-24_18h18.01.106,TranslationElicitation_eng-prolific-spa,3.2.4,Win32,60,5ee7665a74f20302efda997f,,1,0,98,95,1,97
,,,,,,,,,,,,,,,,,,,,,,,,,,,,,,,,,,,,,,,,,e,3.001999855,TRE,FALSE,,,,,,,101,tren,Spanish,Sounds/spa_tren.mp3,2020-06-24_18h18.01.106,TranslationElicitation_eng-prolific-spa,3.2.4,Win32,60,5ee7665a74f20302efda997f,,1,0,98,95,1,97
,,,,,,,,,,,,,,,,,,,,,,,,,,,,,,,,,,,,,,,,,n,3.101999998,TREN,FALSE,,,,,,,101,tren,Spanish,Sounds/spa_tren.mp3,2020-06-24_18h18.01.106,TranslationElicitation_eng-prolific-spa,3.2.4,Win32,60,5ee7665a74f20302efda997f,,1,0,98,95,1,97
,,,,,,,,,,,,,,,,,,,,,,,,,,,,,,,,,,,,,,,,,d,3.18599987,TREND,FALSE,,,,,,,101,tren,Spanish,Sounds/spa_tren.mp3,2020-06-24_18h18.01.106,TranslationElicitation_eng-prolific-spa,3.2.4,Win32,60,5ee7665a74f20302efda997f,,1,0,98,95,1,97
,,,,,,,,,,,,,,,,,,,,,,,,,,,,,,,,,,,,,,,,,y,3.335000038,TRENDY,FALSE,,,,,,,101,tren,Spanish,Sounds/spa_tren.mp3,2020-06-24_18h18.01.106,TranslationElicitation_eng-prolific-spa,3.2.4,Win32,60,5ee7665a74f20302efda997f,,1,0,98,95,1,97
,,,,,,,,,,,,,,,,,,,,,,,,,,,,,,,,,,,,,,,,,backspace,3.851999998,TREND,TRUE,,,,,,,101,tren,Spanish,Sounds/spa_tren.mp3,2020-06-24_18h18.01.106,TranslationElicitation_eng-prolific-spa,3.2.4,Win32,60,5ee7665a74f20302efda997f,,1,0,98,95,1,97
,,,,,,,,,,,,,,,,,,,,,,,,,,,,,,,,,,,,,,,,,return,4.069000006,TREND,TRUE,,,,,,,101,tren,Spanish,Sounds/spa_tren.mp3,2020-06-24_18h18.01.106,TranslationElicitation_eng-prolific-spa,3.2.4,Win32,60,5ee7665a74f20302efda997f,4.069000006,1,0,98,95,1,97
,,,,,,,,,,,,,,,,,,,,,,,,,,,,,,,,,,,,,,,,,,,,,,,,,,,101,tren,Spanish,Sounds/spa_tren.mp3,2020-06-24_18h18.01.106,TranslationElicitation_eng-prolific-spa,3.2.4,Win32,60,5ee7665a74f20302efda997f,,1,0,98,95,1,97
,,,,,,,,,,,,,,,,,,,,,,,,,,,,,,,,,,,,,,,,,p,2.302000046,P,FALSE,,,,,,,85,pierna,Spanish,Sounds/spa_pierna.mp3,2020-06-24_18h18.01.106,TranslationElicitation_eng-prolific-spa,3.2.4,Win32,60,5ee7665a74f20302efda997f,,1,0,98,80,1,97
,,,,,,,,,,,,,,,,,,,,,,,,,,,,,,,,,,,,,,,,,e,2.41899991,PE,FALSE,,,,,,,85,pierna,Spanish,Sounds/spa_pierna.mp3,2020-06-24_18h18.01.106,TranslationElicitation_eng-prolific-spa,3.2.4,Win32,60,5ee7665a74f20302efda997f,,1,0,98,80,1,97
,,,,,,,,,,,,,,,,,,,,,,,,,,,,,,,,,,,,,,,,,r,2.519000053,PER,FALSE,,,,,,,85,pierna,Spanish,Sounds/spa_pierna.mp3,2020-06-24_18h18.01.106,TranslationElicitation_eng-prolific-spa,3.2.4,Win32,60,5ee7665a74f20302efda997f,,1,0,98,80,1,97
,,,,,,,,,,,,,,,,,,,,,,,,,,,,,,,,,,,,,,,,,o,3.186000109,PERO,FALSE,,,,,,,85,pierna,Spanish,Sounds/spa_pierna.mp3,2020-06-24_18h18.01.106,TranslationElicitation_eng-prolific-spa,3.2.4,Win32,60,5ee7665a74f20302efda997f,,1,0,98,80,1,97
,,,,,,,,,,,,,,,,,,,,,,,,,,,,,,,,,,,,,,,,,n,3.286000013,PERON,FALSE,,,,,,,85,pierna,Spanish,Sounds/spa_pierna.mp3,2020-06-24_18h18.01.106,TranslationElicitation_eng-prolific-spa,3.2.4,Win32,60,5ee7665a74f20302efda997f,,1,0,98,80,1,97
,,,,,,,,,,,,,,,,,,,,,,,,,,,,,,,,,,,,,,,,,i,3.403000116,PERONI,FALSE,,,,,,,85,pierna,Spanish,Sounds/spa_pierna.mp3,2020-06-24_18h18.01.106,TranslationElicitation_eng-prolific-spa,3.2.4,Win32,60,5ee7665a74f20302efda997f,,1,0,98,80,1,97
,,,,,,,,,,,,,,,,,,,,,,,,,,,,,,,,,,,,,,,,,return,3.838000059,PERONI,FALSE,,,,,,,85,pierna,Spanish,Sounds/spa_pierna.mp3,2020-06-24_18h18.01.106,TranslationElicitation_eng-prolific-spa,3.2.4,Win32,60,5ee7665a74f20302efda997f,3.838000059,1,0,98,80,1,97
,,,,,,,,,,,,,,,,,,,,,,,,,,,,,,,,,,,,,,,,,,,,,,,,,,,85,pierna,Spanish,Sounds/spa_pierna.mp3,2020-06-24_18h18.01.106,TranslationElicitation_eng-prolific-spa,3.2.4,Win32,60,5ee7665a74f20302efda997f,,1,0,98,80,1,97
,,,,,,,,,,,,,,,,,,,,,,,,,,,,,,,,,,,,,,,,,b,2.735000134,B,FALSE,,,,,,,75,pan,Spanish,Sounds/spa_pan.mp3,2020-06-24_18h18.01.106,TranslationElicitation_eng-prolific-spa,3.2.4,Win32,60,5ee7665a74f20302efda997f,,1,0,98,70,1,97
,,,,,,,,,,,,,,,,,,,,,,,,,,,,,,,,,,,,,,,,,r,2.986000061,BR,FALSE,,,,,,,75,pan,Spanish,Sounds/spa_pan.mp3,2020-06-24_18h18.01.106,TranslationElicitation_eng-prolific-spa,3.2.4,Win32,60,5ee7665a74f20302efda997f,,1,0,98,70,1,97
,,,,,,,,,,,,,,,,,,,,,,,,,,,,,,,,,,,,,,,,,e,3.136000156,BRE,FALSE,,,,,,,75,pan,Spanish,Sounds/spa_pan.mp3,2020-06-24_18h18.01.106,TranslationElicitation_eng-prolific-spa,3.2.4,Win32,60,5ee7665a74f20302efda997f,,1,0,98,70,1,97
,,,,,,,,,,,,,,,,,,,,,,,,,,,,,,,,,,,,,,,,,a,3.220000029,BREA,FALSE,,,,,,,75,pan,Spanish,Sounds/spa_pan.mp3,2020-06-24_18h18.01.106,TranslationElicitation_eng-prolific-spa,3.2.4,Win32,60,5ee7665a74f20302efda997f,,1,0,98,70,1,97
,,,,,,,,,,,,,,,,,,,,,,,,,,,,,,,,,,,,,,,,,d,3.286000013,BREAD,FALSE,,,,,,,75,pan,Spanish,Sounds/spa_pan.mp3,2020-06-24_18h18.01.106,TranslationElicitation_eng-prolific-spa,3.2.4,Win32,60,5ee7665a74f20302efda997f,,1,0,98,70,1,97
,,,,,,,,,,,,,,,,,,,,,,,,,,,,,,,,,,,,,,,,,return,3.720000029,BREAD,FALSE,,,,,,,75,pan,Spanish,Sounds/spa_pan.mp3,2020-06-24_18h18.01.106,TranslationElicitation_eng-prolific-spa,3.2.4,Win32,60,5ee7665a74f20302efda997f,3.720000029,1,0,98,70,1,97
,,,,,,,,,,,,,,,,,,,,,,,,,,,,,,,,,,,,,,,,,,,,,,,,,,,75,pan,Spanish,Sounds/spa_pan.mp3,2020-06-24_18h18.01.106,TranslationElicitation_eng-prolific-spa,3.2.4,Win32,60,5ee7665a74f20302efda997f,,1,0,98,70,1,97
,,,,,,,,,,,,,,,,,,,,,,,,,,,,,,,,,,,,,,,,,t,4.201999903,T,FALSE,,,,,,,100,toro,Spanish,Sounds/spa_toro.mp3,2020-06-24_18h18.01.106,TranslationElicitation_eng-prolific-spa,3.2.4,Win32,60,5ee7665a74f20302efda997f,,1,0,98,94,1,97
,,,,,,,,,,,,,,,,,,,,,,,,,,,,,,,,,,,,,,,,,o,4.286000013,TO,FALSE,,,,,,,100,toro,Spanish,Sounds/spa_toro.mp3,2020-06-24_18h18.01.106,TranslationElicitation_eng-prolific-spa,3.2.4,Win32,60,5ee7665a74f20302efda997f,,1,0,98,94,1,97
,,,,,,,,,,,,,,,,,,,,,,,,,,,,,,,,,,,,,,,,,m,4.385999918,TOM,FALSE,,,,,,,100,toro,Spanish,Sounds/spa_toro.mp3,2020-06-24_18h18.01.106,TranslationElicitation_eng-prolific-spa,3.2.4,Win32,60,5ee7665a74f20302efda997f,,1,0,98,94,1,97
,,,,,,,,,,,,,,,,,,,,,,,,,,,,,,,,,,,,,,,,,a,4.485999823,TOMA,FALSE,,,,,,,100,toro,Spanish,Sounds/spa_toro.mp3,2020-06-24_18h18.01.106,TranslationElicitation_eng-prolific-spa,3.2.4,Win32,60,5ee7665a74f20302efda997f,,1,0,98,94,1,97
,,,,,,,,,,,,,,,,,,,,,,,,,,,,,,,,,,,,,,,,,t,4.68599987,TOMAT,FALSE,,,,,,,100,toro,Spanish,Sounds/spa_toro.mp3,2020-06-24_18h18.01.106,TranslationElicitation_eng-prolific-spa,3.2.4,Win32,60,5ee7665a74f20302efda997f,,1,0,98,94,1,97
,,,,,,,,,,,,,,,,,,,,,,,,,,,,,,,,,,,,,,,,,o,4.753000021,TOMATO,FALSE,,,,,,,100,toro,Spanish,Sounds/spa_toro.mp3,2020-06-24_18h18.01.106,TranslationElicitation_eng-prolific-spa,3.2.4,Win32,60,5ee7665a74f20302efda997f,,1,0,98,94,1,97
,,,,,,,,,,,,,,,,,,,,,,,,,,,,,,,,,,,,,,,,,return,5.207999945,TOMATO,FALSE,,,,,,,100,toro,Spanish,Sounds/spa_toro.mp3,2020-06-24_18h18.01.106,TranslationElicitation_eng-prolific-spa,3.2.4,Win32,60,5ee7665a74f20302efda997f,5.207999945,1,0,98,94,1,97
,,,,,,,,,,,,,,,,,,,,,,,,,,,,,,,,,,,,,,,,,,,,,,,,,,,100,toro,Spanish,Sounds/spa_toro.mp3,2020-06-24_18h18.01.106,TranslationElicitation_eng-prolific-spa,3.2.4,Win32,60,5ee7665a74f20302efda997f,,1,0,98,94,1,97
,,,,,,,,,,,,,,,,,,,,,,,,,,,,,,,,,,,,,,,,,p,3.082999945,P,FALSE,,,,,,,84,pie,Spanish,Sounds/spa_pie.mp3,2020-06-24_18h18.01.106,TranslationElicitation_eng-prolific-spa,3.2.4,Win32,60,5ee7665a74f20302efda997f,,1,0,98,79,1,97
,,,,,,,,,,,,,,,,,,,,,,,,,,,,,,,,,,,,,,,,,l,3.117000103,PL,FALSE,,,,,,,84,pie,Spanish,Sounds/spa_pie.mp3,2020-06-24_18h18.01.106,TranslationElicitation_eng-prolific-spa,3.2.4,Win32,60,5ee7665a74f20302efda997f,,1,0,98,79,1,97
,,,,,,,,,,,,,,,,,,,,,,,,,,,,,,,,,,,,,,,,,e,3.268000126,PLE,FALSE,,,,,,,84,pie,Spanish,Sounds/spa_pie.mp3,2020-06-24_18h18.01.106,TranslationElicitation_eng-prolific-spa,3.2.4,Win32,60,5ee7665a74f20302efda997f,,1,0,98,79,1,97
,,,,,,,,,,,,,,,,,,,,,,,,,,,,,,,,,,,,,,,,,a,3.467000008,PLEA,FALSE,,,,,,,84,pie,Spanish,Sounds/spa_pie.mp3,2020-06-24_18h18.01.106,TranslationElicitation_eng-prolific-spa,3.2.4,Win32,60,5ee7665a74f20302efda997f,,1,0,98,79,1,97
,,,,,,,,,,,,,,,,,,,,,,,,,,,,,,,,,,,,,,,,,s,3.5,PLEAS,FALSE,,,,,,,84,pie,Spanish,Sounds/spa_pie.mp3,2020-06-24_18h18.01.106,TranslationElicitation_eng-prolific-spa,3.2.4,Win32,60,5ee7665a74f20302efda997f,,1,0,98,79,1,97
,,,,,,,,,,,,,,,,,,,,,,,,,,,,,,,,,,,,,,,,,e,3.717000008,PLEASE,FALSE,,,,,,,84,pie,Spanish,Sounds/spa_pie.mp3,2020-06-24_18h18.01.106,TranslationElicitation_eng-prolific-spa,3.2.4,Win32,60,5ee7665a74f20302efda997f,,1,0,98,79,1,97
,,,,,,,,,,,,,,,,,,,,,,,,,,,,,,,,,,,,,,,,,return,4.268000126,PLEASE,FALSE,,,,,,,84,pie,Spanish,Sounds/spa_pie.mp3,2020-06-24_18h18.01.106,TranslationElicitation_eng-prolific-spa,3.2.4,Win32,60,5ee7665a74f20302efda997f,4.268000126,1,0,98,79,1,97
,,,,,,,,,,,,,,,,,,,,,,,,,,,,,,,,,,,,,,,,,,,,,,,,,,,84,pie,Spanish,Sounds/spa_pie.mp3,2020-06-24_18h18.01.106,TranslationElicitation_eng-prolific-spa,3.2.4,Win32,60,5ee7665a74f20302efda997f,,1,0,98,79,1,97
,,,,,,,,,,,,,,,,,,,,,,,,,,,,,,,,,,,,,,,,,c,5.187000036,C,FALSE,,,,,,,15,caballo,Spanish,Sounds/spa_caballo.mp3,2020-06-24_18h18.01.106,TranslationElicitation_eng-prolific-spa,3.2.4,Win32,60,5ee7665a74f20302efda997f,,1,0,98,13,1,97
,,,,,,,,,,,,,,,,,,,,,,,,,,,,,,,,,,,,,,,,,a,5.404000044,CA,FALSE,,,,,,,15,caballo,Spanish,Sounds/spa_caballo.mp3,2020-06-24_18h18.01.106,TranslationElicitation_eng-prolific-spa,3.2.4,Win32,60,5ee7665a74f20302efda997f,,1,0,98,13,1,97
,,,,,,,,,,,,,,,,,,,,,,,,,,,,,,,,,,,,,,,,,v,5.536999941,CAV,FALSE,,,,,,,15,caballo,Spanish,Sounds/spa_caballo.mp3,2020-06-24_18h18.01.106,TranslationElicitation_eng-prolific-spa,3.2.4,Win32,60,5ee7665a74f20302efda997f,,1,0,98,13,1,97
,,,,,,,,,,,,,,,,,,,,,,,,,,,,,,,,,,,,,,,,,a,5.604000092,CAVA,FALSE,,,,,,,15,caballo,Spanish,Sounds/spa_caballo.mp3,2020-06-24_18h18.01.106,TranslationElicitation_eng-prolific-spa,3.2.4,Win32,60,5ee7665a74f20302efda997f,,1,0,98,13,1,97
,,,,,,,,,,,,,,,,,,,,,,,,,,,,,,,,,,,,,,,,,return,5.970999956,CAVA,FALSE,,,,,,,15,caballo,Spanish,Sounds/spa_caballo.mp3,2020-06-24_18h18.01.106,TranslationElicitation_eng-prolific-spa,3.2.4,Win32,60,5ee7665a74f20302efda997f,5.970999956,1,0,98,13,1,97
,,,,,,,,,,,,,,,,,,,,,,,,,,,,,,,,,,,,,,,,,,,,,,,,,,,15,caballo,Spanish,Sounds/spa_caballo.mp3,2020-06-24_18h18.01.106,TranslationElicitation_eng-prolific-spa,3.2.4,Win32,60,5ee7665a74f20302efda997f,,1,0,98,13,1,97
,,,,,,,,,,,,,,,,,,,,,,,,,,,,,,,,,,,,,,,,,p,2.38499999,P,FALSE,,,,,,,19,camiseta,Spanish,Sounds/spa_camiseta.mp3,2020-06-24_18h18.01.106,TranslationElicitation_eng-prolific-spa,3.2.4,Win32,60,5ee7665a74f20302efda997f,,1,0,98,17,1,97
,,,,,,,,,,,,,,,,,,,,,,,,,,,,,,,,,,,,,,,,,r,2.534999847,PR,FALSE,,,,,,,19,camiseta,Spanish,Sounds/spa_camiseta.mp3,2020-06-24_18h18.01.106,TranslationElicitation_eng-prolific-spa,3.2.4,Win32,60,5ee7665a74f20302efda997f,,1,0,98,17,1,97
,,,,,,,,,,,,,,,,,,,,,,,,,,,,,,,,,,,,,,,,,o,2.984999895,PRO,FALSE,,,,,,,19,camiseta,Spanish,Sounds/spa_camiseta.mp3,2020-06-24_18h18.01.106,TranslationElicitation_eng-prolific-spa,3.2.4,Win32,60,5ee7665a74f20302efda997f,,1,0,98,17,1,97
,,,,,,,,,,,,,,,,,,,,,,,,,,,,,,,,,,,,,,,,,s,3.819000006,PROS,FALSE,,,,,,,19,camiseta,Spanish,Sounds/spa_camiseta.mp3,2020-06-24_18h18.01.106,TranslationElicitation_eng-prolific-spa,3.2.4,Win32,60,5ee7665a74f20302efda997f,,1,0,98,17,1,97
,,,,,,,,,,,,,,,,,,,,,,,,,,,,,,,,,,,,,,,,,e,3.96999979,PROSE,FALSE,,,,,,,19,camiseta,Spanish,Sounds/spa_camiseta.mp3,2020-06-24_18h18.01.106,TranslationElicitation_eng-prolific-spa,3.2.4,Win32,60,5ee7665a74f20302efda997f,,1,0,98,17,1,97
,,,,,,,,,,,,,,,,,,,,,,,,,,,,,,,,,,,,,,,,,c,4.171999931,PROSEC,FALSE,,,,,,,19,camiseta,Spanish,Sounds/spa_camiseta.mp3,2020-06-24_18h18.01.106,TranslationElicitation_eng-prolific-spa,3.2.4,Win32,60,5ee7665a74f20302efda997f,,1,0,98,17,1,97
,,,,,,,,,,,,,,,,,,,,,,,,,,,,,,,,,,,,,,,,,c,4.302999973,PROSECC,FALSE,,,,,,,19,camiseta,Spanish,Sounds/spa_camiseta.mp3,2020-06-24_18h18.01.106,TranslationElicitation_eng-prolific-spa,3.2.4,Win32,60,5ee7665a74f20302efda997f,,1,0,98,17,1,97
,,,,,,,,,,,,,,,,,,,,,,,,,,,,,,,,,,,,,,,,,o,4.385999918,PROSECCO,FALSE,,,,,,,19,camiseta,Spanish,Sounds/spa_camiseta.mp3,2020-06-24_18h18.01.106,TranslationElicitation_eng-prolific-spa,3.2.4,Win32,60,5ee7665a74f20302efda997f,,1,0,98,17,1,97
,,,,,,,,,,,,,,,,,,,,,,,,,,,,,,,,,,,,,,,,,return,4.686999798,PROSECCO,FALSE,,,,,,,19,camiseta,Spanish,Sounds/spa_camiseta.mp3,2020-06-24_18h18.01.106,TranslationElicitation_eng-prolific-spa,3.2.4,Win32,60,5ee7665a74f20302efda997f,4.686999798,1,0,98,17,1,97
,,,,,,,,,,,,,,,,,,,,,,,,,,,,,,,,,,,,,,,,,,,,,,,,,,,19,camiseta,Spanish,Sounds/spa_camiseta.mp3,2020-06-24_18h18.01.106,TranslationElicitation_eng-prolific-spa,3.2.4,Win32,60,5ee7665a74f20302efda997f,,1,0,98,17,1,97
,,,,,,,,,,,,,,,,,,,,,,,,,,,,,,,,,,,,,,,,,m,1.666999817,M,FALSE,,,,,,,64,moneda,Spanish,Sounds/spa_moneda.mp3,2020-06-24_18h18.01.106,TranslationElicitation_eng-prolific-spa,3.2.4,Win32,60,5ee7665a74f20302efda997f,,1,0,98,60,1,97
,,,,,,,,,,,,,,,,,,,,,,,,,,,,,,,,,,,,,,,,,o,1.78399992,MO,FALSE,,,,,,,64,moneda,Spanish,Sounds/spa_moneda.mp3,2020-06-24_18h18.01.106,TranslationElicitation_eng-prolific-spa,3.2.4,Win32,60,5ee7665a74f20302efda997f,,1,0,98,60,1,97
,,,,,,,,,,,,,,,,,,,,,,,,,,,,,,,,,,,,,,,,,n,1.901000023,MON,FALSE,,,,,,,64,moneda,Spanish,Sounds/spa_moneda.mp3,2020-06-24_18h18.01.106,TranslationElicitation_eng-prolific-spa,3.2.4,Win32,60,5ee7665a74f20302efda997f,,1,0,98,60,1,97
,,,,,,,,,,,,,,,,,,,,,,,,,,,,,,,,,,,,,,,,,e,2.01699996,MONE,FALSE,,,,,,,64,moneda,Spanish,Sounds/spa_moneda.mp3,2020-06-24_18h18.01.106,TranslationElicitation_eng-prolific-spa,3.2.4,Win32,60,5ee7665a74f20302efda997f,,1,0,98,60,1,97
,,,,,,,,,,,,,,,,,,,,,,,,,,,,,,,,,,,,,,,,,y,2.083999872,MONEY,FALSE,,,,,,,64,moneda,Spanish,Sounds/spa_moneda.mp3,2020-06-24_18h18.01.106,TranslationElicitation_eng-prolific-spa,3.2.4,Win32,60,5ee7665a74f20302efda997f,,1,0,98,60,1,97
,,,,,,,,,,,,,,,,,,,,,,,,,,,,,,,,,,,,,,,,,return,2.618000031,MONEY,FALSE,,,,,,,64,moneda,Spanish,Sounds/spa_moneda.mp3,2020-06-24_18h18.01.106,TranslationElicitation_eng-prolific-spa,3.2.4,Win32,60,5ee7665a74f20302efda997f,2.618000031,1,0,98,60,1,97
,,,,,,,,,,,,,,,,,,,,,,,,,,,,,,,,,,,,,,,,,,,,,,,,,,,64,moneda,Spanish,Sounds/spa_moneda.mp3,2020-06-24_18h18.01.106,TranslationElicitation_eng-prolific-spa,3.2.4,Win32,60,5ee7665a74f20302efda997f,,1,0,98,60,1,97
,,,,,,,,,,,,,,,,,,,,,,,,,,,,,,,,,,,,,,,,,p,2.234999895,P,FALSE,,,,,,,86,pingino,Spanish,Sounds/spa_pinguino.mp3,2020-06-24_18h18.01.106,TranslationElicitation_eng-prolific-spa,3.2.4,Win32,60,5ee7665a74f20302efda997f,,1,0,98,81,1,97
,,,,,,,,,,,,,,,,,,,,,,,,,,,,,,,,,,,,,,,,,a,2.351999998,PA,FALSE,,,,,,,86,pingino,Spanish,Sounds/spa_pinguino.mp3,2020-06-24_18h18.01.106,TranslationElicitation_eng-prolific-spa,3.2.4,Win32,60,5ee7665a74f20302efda997f,,1,0,98,81,1,97
,,,,,,,,,,,,,,,,,,,,,,,,,,,,,,,,,,,,,,,,,d,2.553999901,PAD,FALSE,,,,,,,86,pingino,Spanish,Sounds/spa_pinguino.mp3,2020-06-24_18h18.01.106,TranslationElicitation_eng-prolific-spa,3.2.4,Win32,60,5ee7665a74f20302efda997f,,1,0,98,81,1,97
,,,,,,,,,,,,,,,,,,,,,,,,,,,,,,,,,,,,,,,,,t,2.66899991,PADT,FALSE,,,,,,,86,pingino,Spanish,Sounds/spa_pinguino.mp3,2020-06-24_18h18.01.106,TranslationElicitation_eng-prolific-spa,3.2.4,Win32,60,5ee7665a74f20302efda997f,,1,0,98,81,1,97
,,,,,,,,,,,,,,,,,,,,,,,,,,,,,,,,,,,,,,,,,s,2.751999855,PADTS,FALSE,,,,,,,86,pingino,Spanish,Sounds/spa_pinguino.mp3,2020-06-24_18h18.01.106,TranslationElicitation_eng-prolific-spa,3.2.4,Win32,60,5ee7665a74f20302efda997f,,1,0,98,81,1,97
,,,,,,,,,,,,,,,,,,,,,,,,,,,,,,,,,,,,,,,,,backspace,3.052000046,PADT,TRUE,,,,,,,86,pingino,Spanish,Sounds/spa_pinguino.mp3,2020-06-24_18h18.01.106,TranslationElicitation_eng-prolific-spa,3.2.4,Win32,60,5ee7665a74f20302efda997f,,1,0,98,81,1,97
,,,,,,,,,,,,,,,,,,,,,,,,,,,,,,,,,,,,,,,,,backspace,3.218999863,PAD,TRUE,,,,,,,86,pingino,Spanish,Sounds/spa_pinguino.mp3,2020-06-24_18h18.01.106,TranslationElicitation_eng-prolific-spa,3.2.4,Win32,60,5ee7665a74f20302efda997f,,1,0,98,81,1,97
,,,,,,,,,,,,,,,,,,,,,,,,,,,,,,,,,,,,,,,,,backspace,3.371999979,PA,TRUE,,,,,,,86,pingino,Spanish,Sounds/spa_pinguino.mp3,2020-06-24_18h18.01.106,TranslationElicitation_eng-prolific-spa,3.2.4,Win32,60,5ee7665a74f20302efda997f,,1,0,98,81,1,97
,,,,,,,,,,,,,,,,,,,,,,,,,,,,,,,,,,,,,,,,,s,3.486000061,PAS,TRUE,,,,,,,86,pingino,Spanish,Sounds/spa_pinguino.mp3,2020-06-24_18h18.01.106,TranslationElicitation_eng-prolific-spa,3.2.4,Win32,60,5ee7665a74f20302efda997f,,1,0,98,81,1,97
,,,,,,,,,,,,,,,,,,,,,,,,,,,,,,,,,,,,,,,,,a,3.670000076,PASA,TRUE,,,,,,,86,pingino,Spanish,Sounds/spa_pinguino.mp3,2020-06-24_18h18.01.106,TranslationElicitation_eng-prolific-spa,3.2.4,Win32,60,5ee7665a74f20302efda997f,,1,0,98,81,1,97
,,,,,,,,,,,,,,,,,,,,,,,,,,,,,,,,,,,,,,,,,t,3.68599987,PASAT,TRUE,,,,,,,86,pingino,Spanish,Sounds/spa_pinguino.mp3,2020-06-24_18h18.01.106,TranslationElicitation_eng-prolific-spa,3.2.4,Win32,60,5ee7665a74f20302efda997f,,1,0,98,81,1,97
,,,,,,,,,,,,,,,,,,,,,,,,,,,,,,,,,,,,,,,,,backspace,4.319999933,PASA,TRUE,,,,,,,86,pingino,Spanish,Sounds/spa_pinguino.mp3,2020-06-24_18h18.01.106,TranslationElicitation_eng-prolific-spa,3.2.4,Win32,60,5ee7665a74f20302efda997f,,1,0,98,81,1,97
,,,,,,,,,,,,,,,,,,,,,,,,,,,,,,,,,,,,,,,,,backspace,4.453000069,PAS,TRUE,,,,,,,86,pingino,Spanish,Sounds/spa_pinguino.mp3,2020-06-24_18h18.01.106,TranslationElicitation_eng-prolific-spa,3.2.4,Win32,60,5ee7665a74f20302efda997f,,1,0,98,81,1,97
,,,,,,,,,,,,,,,,,,,,,,,,,,,,,,,,,,,,,,,,,t,4.670000076,PAST,TRUE,,,,,,,86,pingino,Spanish,Sounds/spa_pinguino.mp3,2020-06-24_18h18.01.106,TranslationElicitation_eng-prolific-spa,3.2.4,Win32,60,5ee7665a74f20302efda997f,,1,0,98,81,1,97
,,,,,,,,,,,,,,,,,,,,,,,,,,,,,,,,,,,,,,,,,a,4.737999916,PASTA,TRUE,,,,,,,86,pingino,Spanish,Sounds/spa_pinguino.mp3,2020-06-24_18h18.01.106,TranslationElicitation_eng-prolific-spa,3.2.4,Win32,60,5ee7665a74f20302efda997f,,1,0,98,81,1,97
,,,,,,,,,,,,,,,,,,,,,,,,,,,,,,,,,,,,,,,,,return,5.211999893,PASTA,TRUE,,,,,,,86,pingino,Spanish,Sounds/spa_pinguino.mp3,2020-06-24_18h18.01.106,TranslationElicitation_eng-prolific-spa,3.2.4,Win32,60,5ee7665a74f20302efda997f,5.211999893,1,0,98,81,1,97
,,,,,,,,,,,,,,,,,,,,,,,,,,,,,,,,,,,,,,,,,,,,,,,,,,,86,pingino,Spanish,Sounds/spa_pinguino.mp3,2020-06-24_18h18.01.106,TranslationElicitation_eng-prolific-spa,3.2.4,Win32,60,5ee7665a74f20302efda997f,,1,0,98,81,1,97
,,,,,,,,,,,,,,,,,,,,,,,,,,,,,,,,,,,,,,,,,t,5.553000212,T,FALSE,,,,,,,94,tambor,Spanish,Sounds/spa_tambor.mp3,2020-06-24_18h18.01.106,TranslationElicitation_eng-prolific-spa,3.2.4,Win32,60,5ee7665a74f20302efda997f,,1,0,98,89,1,97
,,,,,,,,,,,,,,,,,,,,,,,,,,,,,,,,,,,,,,,,,a,5.953000069,TA,FALSE,,,,,,,94,tambor,Spanish,Sounds/spa_tambor.mp3,2020-06-24_18h18.01.106,TranslationElicitation_eng-prolific-spa,3.2.4,Win32,60,5ee7665a74f20302efda997f,,1,0,98,89,1,97
,,,,,,,,,,,,,,,,,,,,,,,,,,,,,,,,,,,,,,,,,m,6.071000099,TAM,FALSE,,,,,,,94,tambor,Spanish,Sounds/spa_tambor.mp3,2020-06-24_18h18.01.106,TranslationElicitation_eng-prolific-spa,3.2.4,Win32,60,5ee7665a74f20302efda997f,,1,0,98,89,1,97
,,,,,,,,,,,,,,,,,,,,,,,,,,,,,,,,,,,,,,,,,b,7.404000044,TAMB,FALSE,,,,,,,94,tambor,Spanish,Sounds/spa_tambor.mp3,2020-06-24_18h18.01.106,TranslationElicitation_eng-prolific-spa,3.2.4,Win32,60,5ee7665a74f20302efda997f,,1,0,98,89,1,97
,,,,,,,,,,,,,,,,,,,,,,,,,,,,,,,,,,,,,,,,,o,7.604000092,TAMBO,FALSE,,,,,,,94,tambor,Spanish,Sounds/spa_tambor.mp3,2020-06-24_18h18.01.106,TranslationElicitation_eng-prolific-spa,3.2.4,Win32,60,5ee7665a74f20302efda997f,,1,0,98,89,1,97
,,,,,,,,,,,,,,,,,,,,,,,,,,,,,,,,,,,,,,,,,r,7.654000044,TAMBOR,FALSE,,,,,,,94,tambor,Spanish,Sounds/spa_tambor.mp3,2020-06-24_18h18.01.106,TranslationElicitation_eng-prolific-spa,3.2.4,Win32,60,5ee7665a74f20302efda997f,,1,0,98,89,1,97
,,,,,,,,,,,,,,,,,,,,,,,,,,,,,,,,,,,,,,,,,backspace,8.988000154,TAMBO,TRUE,,,,,,,94,tambor,Spanish,Sounds/spa_tambor.mp3,2020-06-24_18h18.01.106,TranslationElicitation_eng-prolific-spa,3.2.4,Win32,60,5ee7665a74f20302efda997f,,1,0,98,89,1,97
,,,,,,,,,,,,,,,,,,,,,,,,,,,,,,,,,,,,,,,,,backspace,9.22300005,TAMB,TRUE,,,,,,,94,tambor,Spanish,Sounds/spa_tambor.mp3,2020-06-24_18h18.01.106,TranslationElicitation_eng-prolific-spa,3.2.4,Win32,60,5ee7665a74f20302efda997f,,1,0,98,89,1,97
,,,,,,,,,,,,,,,,,,,,,,,,,,,,,,,,,,,,,,,,,backspace,9.42200017,TAM,TRUE,,,,,,,94,tambor,Spanish,Sounds/spa_tambor.mp3,2020-06-24_18h18.01.106,TranslationElicitation_eng-prolific-spa,3.2.4,Win32,60,5ee7665a74f20302efda997f,,1,0,98,89,1,97
,,,,,,,,,,,,,,,,,,,,,,,,,,,,,,,,,,,,,,,,,backspace,10.7440002,TA,TRUE,,,,,,,94,tambor,Spanish,Sounds/spa_tambor.mp3,2020-06-24_18h18.01.106,TranslationElicitation_eng-prolific-spa,3.2.4,Win32,60,5ee7665a74f20302efda997f,,1,0,98,89,1,97
,,,,,,,,,,,,,,,,,,,,,,,,,,,,,,,,,,,,,,,,,backspace,10.8900001,T,TRUE,,,,,,,94,tambor,Spanish,Sounds/spa_tambor.mp3,2020-06-24_18h18.01.106,TranslationElicitation_eng-prolific-spa,3.2.4,Win32,60,5ee7665a74f20302efda997f,,1,0,98,89,1,97
,,,,,,,,,,,,,,,,,,,,,,,,,,,,,,,,,,,,,,,,,o,11.22400022,TO,TRUE,,,,,,,94,tambor,Spanish,Sounds/spa_tambor.mp3,2020-06-24_18h18.01.106,TranslationElicitation_eng-prolific-spa,3.2.4,Win32,60,5ee7665a74f20302efda997f,,1,0,98,89,1,97
,,,,,,,,,,,,,,,,,,,,,,,,,,,,,,,,,,,,,,,,,m,11.99100018,TOM,TRUE,,,,,,,94,tambor,Spanish,Sounds/spa_tambor.mp3,2020-06-24_18h18.01.106,TranslationElicitation_eng-prolific-spa,3.2.4,Win32,60,5ee7665a74f20302efda997f,,1,0,98,89,1,97
,,,,,,,,,,,,,,,,,,,,,,,,,,,,,,,,,,,,,,,,,o,12.125,TOMO,TRUE,,,,,,,94,tambor,Spanish,Sounds/spa_tambor.mp3,2020-06-24_18h18.01.106,TranslationElicitation_eng-prolific-spa,3.2.4,Win32,60,5ee7665a74f20302efda997f,,1,0,98,89,1,97
,,,,,,,,,,,,,,,,,,,,,,,,,,,,,,,,,,,,,,,,,r,12.39100003,TOMOR,TRUE,,,,,,,94,tambor,Spanish,Sounds/spa_tambor.mp3,2020-06-24_18h18.01.106,TranslationElicitation_eng-prolific-spa,3.2.4,Win32,60,5ee7665a74f20302efda997f,,1,0,98,89,1,97
,,,,,,,,,,,,,,,,,,,,,,,,,,,,,,,,,,,,,,,,,r,12.77400017,TOMORR,TRUE,,,,,,,94,tambor,Spanish,Sounds/spa_tambor.mp3,2020-06-24_18h18.01.106,TranslationElicitation_eng-prolific-spa,3.2.4,Win32,60,5ee7665a74f20302efda997f,,1,0,98,89,1,97
,,,,,,,,,,,,,,,,,,,,,,,,,,,,,,,,,,,,,,,,,o,12.85800004,TOMORRO,TRUE,,,,,,,94,tambor,Spanish,Sounds/spa_tambor.mp3,2020-06-24_18h18.01.106,TranslationElicitation_eng-prolific-spa,3.2.4,Win32,60,5ee7665a74f20302efda997f,,1,0,98,89,1,97
,,,,,,,,,,,,,,,,,,,,,,,,,,,,,,,,,,,,,,,,,w,12.95800018,TOMORROW,TRUE,,,,,,,94,tambor,Spanish,Sounds/spa_tambor.mp3,2020-06-24_18h18.01.106,TranslationElicitation_eng-prolific-spa,3.2.4,Win32,60,5ee7665a74f20302efda997f,,1,0,98,89,1,97
,,,,,,,,,,,,,,,,,,,,,,,,,,,,,,,,,,,,,,,,,return,13.35800004,TOMORROW,TRUE,,,,,,,94,tambor,Spanish,Sounds/spa_tambor.mp3,2020-06-24_18h18.01.106,TranslationElicitation_eng-prolific-spa,3.2.4,Win32,60,5ee7665a74f20302efda997f,13.35800004,1,0,98,89,1,97
,,,,,,,,,,,,,,,,,,,,,,,,,,,,,,,,,,,,,,,,,,,,,,,,,,,94,tambor,Spanish,Sounds/spa_tambor.mp3,2020-06-24_18h18.01.106,TranslationElicitation_eng-prolific-spa,3.2.4,Win32,60,5ee7665a74f20302efda997f,,1,0,98,89,1,97
,,,,,,,,,,,,,,,,,,,,,,,,,,,,,,,,,,,,,,,,,f,12.1400001,F,FALSE,,,,,,,38,frambuesa,Spanish,Sounds/spa_frambuesa.mp3,2020-06-24_18h18.01.106,TranslationElicitation_eng-prolific-spa,3.2.4,Win32,60,5ee7665a74f20302efda997f,,1,0,98,34,1,97
,,,,,,,,,,,,,,,,,,,,,,,,,,,,,,,,,,,,,,,,,i,12.27400017,FI,FALSE,,,,,,,38,frambuesa,Spanish,Sounds/spa_frambuesa.mp3,2020-06-24_18h18.01.106,TranslationElicitation_eng-prolific-spa,3.2.4,Win32,60,5ee7665a74f20302efda997f,,1,0,98,34,1,97
,,,,,,,,,,,,,,,,,,,,,,,,,,,,,,,,,,,,,,,,,s,12.34100008,FIS,FALSE,,,,,,,38,frambuesa,Spanish,Sounds/spa_frambuesa.mp3,2020-06-24_18h18.01.106,TranslationElicitation_eng-prolific-spa,3.2.4,Win32,60,5ee7665a74f20302efda997f,,1,0,98,34,1,97
,,,,,,,,,,,,,,,,,,,,,,,,,,,,,,,,,,,,,,,,,h,12.40700006,FISH,FALSE,,,,,,,38,frambuesa,Spanish,Sounds/spa_frambuesa.mp3,2020-06-24_18h18.01.106,TranslationElicitation_eng-prolific-spa,3.2.4,Win32,60,5ee7665a74f20302efda997f,,1,0,98,34,1,97
,,,,,,,,,,,,,,,,,,,,,,,,,,,,,,,,,,,,,,,,,return,12.82400012,FISH,FALSE,,,,,,,38,frambuesa,Spanish,Sounds/spa_frambuesa.mp3,2020-06-24_18h18.01.106,TranslationElicitation_eng-prolific-spa,3.2.4,Win32,60,5ee7665a74f20302efda997f,12.82400012,1,0,98,34,1,97
,,,,,,,,,,,,,,,,,,,,,,,,,,,,,,,,,,,,,,,,,,,,,,,,,,,38,frambuesa,Spanish,Sounds/spa_frambuesa.mp3,2020-06-24_18h18.01.106,TranslationElicitation_eng-prolific-spa,3.2.4,Win32,60,5ee7665a74f20302efda997f,,1,0,98,34,1,97
,,,,,,,,,,,,,,,,,,,,,,,,,,,,,,,,,,,,,,,,,f,3.167999983,F,FALSE,,,,,,,14,burro,Spanish,Sounds/spa_burro.mp3,2020-06-24_18h18.01.106,TranslationElicitation_eng-prolific-spa,3.2.4,Win32,60,5ee7665a74f20302efda997f,,1,0,98,12,1,97
,,,,,,,,,,,,,,,,,,,,,,,,,,,,,,,,,,,,,,,,,i,3.267999887,FI,FALSE,,,,,,,14,burro,Spanish,Sounds/spa_burro.mp3,2020-06-24_18h18.01.106,TranslationElicitation_eng-prolific-spa,3.2.4,Win32,60,5ee7665a74f20302efda997f,,1,0,98,12,1,97
,,,,,,,,,,,,,,,,,,,,,,,,,,,,,,,,,,,,,,,,,s,3.368000031,FIS,FALSE,,,,,,,14,burro,Spanish,Sounds/spa_burro.mp3,2020-06-24_18h18.01.106,TranslationElicitation_eng-prolific-spa,3.2.4,Win32,60,5ee7665a74f20302efda997f,,1,0,98,12,1,97
,,,,,,,,,,,,,,,,,,,,,,,,,,,,,,,,,,,,,,,,,h,3.434999943,FISH,FALSE,,,,,,,14,burro,Spanish,Sounds/spa_burro.mp3,2020-06-24_18h18.01.106,TranslationElicitation_eng-prolific-spa,3.2.4,Win32,60,5ee7665a74f20302efda997f,,1,0,98,12,1,97
,,,,,,,,,,,,,,,,,,,,,,,,,,,,,,,,,,,,,,,,,return,3.734999895,FISH,FALSE,,,,,,,14,burro,Spanish,Sounds/spa_burro.mp3,2020-06-24_18h18.01.106,TranslationElicitation_eng-prolific-spa,3.2.4,Win32,60,5ee7665a74f20302efda997f,3.734999895,1,0,98,12,1,97
,,,,,,,,,,,,,,,,,,,,,,,,,,,,,,,,,,,,,,,,,,,,,,,,,,,14,burro,Spanish,Sounds/spa_burro.mp3,2020-06-24_18h18.01.106,TranslationElicitation_eng-prolific-spa,3.2.4,Win32,60,5ee7665a74f20302efda997f,,1,0,98,12,1,97
,,,,,,,,,,,,,,,,,,,,,,,,,,,,,,,,,,,,,,,,,m,2.085000038,M,FALSE,,,,,,,59,mano,Spanish,Sounds/spa_mano.mp3,2020-06-24_18h18.01.106,TranslationElicitation_eng-prolific-spa,3.2.4,Win32,60,5ee7665a74f20302efda997f,,1,0,98,55,1,97
,,,,,,,,,,,,,,,,,,,,,,,,,,,,,,,,,,,,,,,,,e,2.30099988,ME,FALSE,,,,,,,59,mano,Spanish,Sounds/spa_mano.mp3,2020-06-24_18h18.01.106,TranslationElicitation_eng-prolific-spa,3.2.4,Win32,60,5ee7665a74f20302efda997f,,1,0,98,55,1,97
,,,,,,,,,,,,,,,,,,,,,,,,,,,,,,,,,,,,,,,,,d,2.51699996,MED,FALSE,,,,,,,59,mano,Spanish,Sounds/spa_mano.mp3,2020-06-24_18h18.01.106,TranslationElicitation_eng-prolific-spa,3.2.4,Win32,60,5ee7665a74f20302efda997f,,1,0,98,55,1,97
,,,,,,,,,,,,,,,,,,,,,,,,,,,,,,,,,,,,,,,,,i,2.65199995,MEDI,FALSE,,,,,,,59,mano,Spanish,Sounds/spa_mano.mp3,2020-06-24_18h18.01.106,TranslationElicitation_eng-prolific-spa,3.2.4,Win32,60,5ee7665a74f20302efda997f,,1,0,98,55,1,97
,,,,,,,,,,,,,,,,,,,,,,,,,,,,,,,,,,,,,,,,,u,2.801999807,MEDIU,FALSE,,,,,,,59,mano,Spanish,Sounds/spa_mano.mp3,2020-06-24_18h18.01.106,TranslationElicitation_eng-prolific-spa,3.2.4,Win32,60,5ee7665a74f20302efda997f,,1,0,98,55,1,97
,,,,,,,,,,,,,,,,,,,,,,,,,,,,,,,,,,,,,,,,,m,2.984999895,MEDIUM,FALSE,,,,,,,59,mano,Spanish,Sounds/spa_mano.mp3,2020-06-24_18h18.01.106,TranslationElicitation_eng-prolific-spa,3.2.4,Win32,60,5ee7665a74f20302efda997f,,1,0,98,55,1,97
,,,,,,,,,,,,,,,,,,,,,,,,,,,,,,,,,,,,,,,,,return,3.118000031,MEDIUM,FALSE,,,,,,,59,mano,Spanish,Sounds/spa_mano.mp3,2020-06-24_18h18.01.106,TranslationElicitation_eng-prolific-spa,3.2.4,Win32,60,5ee7665a74f20302efda997f,3.118000031,1,0,98,55,1,97
,,,,,,,,,,,,,,,,,,,,,,,,,,,,,,,,,,,,,,,,,,,,,,,,,,,59,mano,Spanish,Sounds/spa_mano.mp3,2020-06-24_18h18.01.106,TranslationElicitation_eng-prolific-spa,3.2.4,Win32,60,5ee7665a74f20302efda997f,,1,0,98,55,1,97
,,,,,,,,,,,,,,,,,,,,,,,,,,,,,,,,,,,,,,,,,l,1.368000031,L,FALSE,,,,,,,53,leche,Spanish,Sounds/spa_leche.mp3,2020-06-24_18h18.01.106,TranslationElicitation_eng-prolific-spa,3.2.4,Win32,60,5ee7665a74f20302efda997f,,1,0,98,49,1,97
,,,,,,,,,,,,,,,,,,,,,,,,,,,,,,,,,,,,,,,,,a,1.484999895,LA,FALSE,,,,,,,53,leche,Spanish,Sounds/spa_leche.mp3,2020-06-24_18h18.01.106,TranslationElicitation_eng-prolific-spa,3.2.4,Win32,60,5ee7665a74f20302efda997f,,1,0,98,49,1,97
,,,,,,,,,,,,,,,,,,,,,,,,,,,,,,,,,,,,,,,,,d,1.651000023,LAD,FALSE,,,,,,,53,leche,Spanish,Sounds/spa_leche.mp3,2020-06-24_18h18.01.106,TranslationElicitation_eng-prolific-spa,3.2.4,Win32,60,5ee7665a74f20302efda997f,,1,0,98,49,1,97
,,,,,,,,,,,,,,,,,,,,,,,,,,,,,,,,,,,,,,,,,y,1.784999847,LADY,FALSE,,,,,,,53,leche,Spanish,Sounds/spa_leche.mp3,2020-06-24_18h18.01.106,TranslationElicitation_eng-prolific-spa,3.2.4,Win32,60,5ee7665a74f20302efda997f,,1,0,98,49,1,97
,,,,,,,,,,,,,,,,,,,,,,,,,,,,,,,,,,,,,,,,,return,2.267999887,LADY,FALSE,,,,,,,53,leche,Spanish,Sounds/spa_leche.mp3,2020-06-24_18h18.01.106,TranslationElicitation_eng-prolific-spa,3.2.4,Win32,60,5ee7665a74f20302efda997f,2.267999887,1,0,98,49,1,97
,,,,,,,,,,,,,,,,,,,,,,,,,,,,,,,,,,,,,,,,,,,,,,,,,,,53,leche,Spanish,Sounds/spa_leche.mp3,2020-06-24_18h18.01.106,TranslationElicitation_eng-prolific-spa,3.2.4,Win32,60,5ee7665a74f20302efda997f,,1,0,98,49,1,97
,,,,,,,,,,,,,,,,,,,,,,,,,,,,,,,,,,,,,,,,,b,1.799999952,B,FALSE,,,,,,,5,bici,Spanish,Sounds/spa_bici.mp3,2020-06-24_18h18.01.106,TranslationElicitation_eng-prolific-spa,3.2.4,Win32,60,5ee7665a74f20302efda997f,,1,0,98,3,1,97
,,,,,,,,,,,,,,,,,,,,,,,,,,,,,,,,,,,,,,,,,a,1.900000095,BA,FALSE,,,,,,,5,bici,Spanish,Sounds/spa_bici.mp3,2020-06-24_18h18.01.106,TranslationElicitation_eng-prolific-spa,3.2.4,Win32,60,5ee7665a74f20302efda997f,,1,0,98,3,1,97
,,,,,,,,,,,,,,,,,,,,,,,,,,,,,,,,,,,,,,,,,b,1.967000008,BAB,FALSE,,,,,,,5,bici,Spanish,Sounds/spa_bici.mp3,2020-06-24_18h18.01.106,TranslationElicitation_eng-prolific-spa,3.2.4,Win32,60,5ee7665a74f20302efda997f,,1,0,98,3,1,97
,,,,,,,,,,,,,,,,,,,,,,,,,,,,,,,,,,,,,,,,,i,2.634000063,BABI,FALSE,,,,,,,5,bici,Spanish,Sounds/spa_bici.mp3,2020-06-24_18h18.01.106,TranslationElicitation_eng-prolific-spa,3.2.4,Win32,60,5ee7665a74f20302efda997f,,1,0,98,3,1,97
,,,,,,,,,,,,,,,,,,,,,,,,,,,,,,,,,,,,,,,,,backspace,2.967000008,BAB,TRUE,,,,,,,5,bici,Spanish,Sounds/spa_bici.mp3,2020-06-24_18h18.01.106,TranslationElicitation_eng-prolific-spa,3.2.4,Win32,60,5ee7665a74f20302efda997f,,1,0,98,3,1,97
,,,,,,,,,,,,,,,,,,,,,,,,,,,,,,,,,,,,,,,,,y,3.134000063,BABY,TRUE,,,,,,,5,bici,Spanish,Sounds/spa_bici.mp3,2020-06-24_18h18.01.106,TranslationElicitation_eng-prolific-spa,3.2.4,Win32,60,5ee7665a74f20302efda997f,,1,0,98,3,1,97
,,,,,,,,,,,,,,,,,,,,,,,,,,,,,,,,,,,,,,,,,return,3.568000078,BABY,TRUE,,,,,,,5,bici,Spanish,Sounds/spa_bici.mp3,2020-06-24_18h18.01.106,TranslationElicitation_eng-prolific-spa,3.2.4,Win32,60,5ee7665a74f20302efda997f,3.568000078,1,0,98,3,1,97
,,,,,,,,,,,,,,,,,,,,,,,,,,,,,,,,,,,,,,,,,,,,,,,,,,,5,bici,Spanish,Sounds/spa_bici.mp3,2020-06-24_18h18.01.106,TranslationElicitation_eng-prolific-spa,3.2.4,Win32,60,5ee7665a74f20302efda997f,,1,0,98,3,1,97
,,,,,,,,,,,,,,,,,,,,,,,,,,,,,,,,,,,,,,,,,c,2.583999872,C,FALSE,,,,,,,40,galleta,Spanish,Sounds/spa_galleta.mp3,2020-06-24_18h18.01.106,TranslationElicitation_eng-prolific-spa,3.2.4,Win32,60,5ee7665a74f20302efda997f,,1,0,98,36,1,97
,,,,,,,,,,,,,,,,,,,,,,,,,,,,,,,,,,,,,,,,,h,2.666999817,CH,FALSE,,,,,,,40,galleta,Spanish,Sounds/spa_galleta.mp3,2020-06-24_18h18.01.106,TranslationElicitation_eng-prolific-spa,3.2.4,Win32,60,5ee7665a74f20302efda997f,,1,0,98,36,1,97
,,,,,,,,,,,,,,,,,,,,,,,,,,,,,,,,,,,,,,,,,i,2.801999807,CHI,FALSE,,,,,,,40,galleta,Spanish,Sounds/spa_galleta.mp3,2020-06-24_18h18.01.106,TranslationElicitation_eng-prolific-spa,3.2.4,Win32,60,5ee7665a74f20302efda997f,,1,0,98,36,1,97
,,,,,,,,,,,,,,,,,,,,,,,,,,,,,,,,,,,,,,,,,l,2.949999809,CHIL,FALSE,,,,,,,40,galleta,Spanish,Sounds/spa_galleta.mp3,2020-06-24_18h18.01.106,TranslationElicitation_eng-prolific-spa,3.2.4,Win32,60,5ee7665a74f20302efda997f,,1,0,98,36,1,97
,,,,,,,,,,,,,,,,,,,,,,,,,,,,,,,,,,,,,,,,,d,3.03399992,CHILD,FALSE,,,,,,,40,galleta,Spanish,Sounds/spa_galleta.mp3,2020-06-24_18h18.01.106,TranslationElicitation_eng-prolific-spa,3.2.4,Win32,60,5ee7665a74f20302efda997f,,1,0,98,36,1,97
,,,,,,,,,,,,,,,,,,,,,,,,,,,,,,,,,,,,,,,,,r,3.237999916,CHILDR,FALSE,,,,,,,40,galleta,Spanish,Sounds/spa_galleta.mp3,2020-06-24_18h18.01.106,TranslationElicitation_eng-prolific-spa,3.2.4,Win32,60,5ee7665a74f20302efda997f,,1,0,98,36,1,97
,,,,,,,,,,,,,,,,,,,,,,,,,,,,,,,,,,,,,,,,,e,3.449999809,CHILDRE,FALSE,,,,,,,40,galleta,Spanish,Sounds/spa_galleta.mp3,2020-06-24_18h18.01.106,TranslationElicitation_eng-prolific-spa,3.2.4,Win32,60,5ee7665a74f20302efda997f,,1,0,98,36,1,97
,,,,,,,,,,,,,,,,,,,,,,,,,,,,,,,,,,,,,,,,,n,3.517999887,CHILDREN,FALSE,,,,,,,40,galleta,Spanish,Sounds/spa_galleta.mp3,2020-06-24_18h18.01.106,TranslationElicitation_eng-prolific-spa,3.2.4,Win32,60,5ee7665a74f20302efda997f,,1,0,98,36,1,97
,,,,,,,,,,,,,,,,,,,,,,,,,,,,,,,,,,,,,,,,,return,4.133999825,CHILDREN,FALSE,,,,,,,40,galleta,Spanish,Sounds/spa_galleta.mp3,2020-06-24_18h18.01.106,TranslationElicitation_eng-prolific-spa,3.2.4,Win32,60,5ee7665a74f20302efda997f,4.133999825,1,0,98,36,1,97
,,,,,,,,,,,,,,,,,,,,,,,,,,,,,,,,,,,,,,,,,,,,,,,,,,,40,galleta,Spanish,Sounds/spa_galleta.mp3,2020-06-24_18h18.01.106,TranslationElicitation_eng-prolific-spa,3.2.4,Win32,60,5ee7665a74f20302efda997f,,1,0,98,36,1,97
,,,,,,,,,,,,,,,,,,,,,,,,,,,,,,,,,,,,,,,,,k,2.28399992,K,FALSE,,,,,,,29,coche,Spanish,Sounds/spa_coche.mp3,2020-06-24_18h18.01.106,TranslationElicitation_eng-prolific-spa,3.2.4,Win32,60,5ee7665a74f20302efda997f,,1,0,98,26,1,97
,,,,,,,,,,,,,,,,,,,,,,,,,,,,,,,,,,,,,,,,,o,2.484999895,KO,FALSE,,,,,,,29,coche,Spanish,Sounds/spa_coche.mp3,2020-06-24_18h18.01.106,TranslationElicitation_eng-prolific-spa,3.2.4,Win32,60,5ee7665a74f20302efda997f,,1,0,98,26,1,97
,,,,,,,,,,,,,,,,,,,,,,,,,,,,,,,,,,,,,,,,,t,2.835000038,KOT,FALSE,,,,,,,29,coche,Spanish,Sounds/spa_coche.mp3,2020-06-24_18h18.01.106,TranslationElicitation_eng-prolific-spa,3.2.4,Win32,60,5ee7665a74f20302efda997f,,1,0,98,26,1,97
,,,,,,,,,,,,,,,,,,,,,,,,,,,,,,,,,,,,,,,,,c,2.951999903,KOTC,FALSE,,,,,,,29,coche,Spanish,Sounds/spa_coche.mp3,2020-06-24_18h18.01.106,TranslationElicitation_eng-prolific-spa,3.2.4,Win32,60,5ee7665a74f20302efda997f,,1,0,98,26,1,97
,,,,,,,,,,,,,,,,,,,,,,,,,,,,,,,,,,,,,,,,,h,3.017999887,KOTCH,FALSE,,,,,,,29,coche,Spanish,Sounds/spa_coche.mp3,2020-06-24_18h18.01.106,TranslationElicitation_eng-prolific-spa,3.2.4,Win32,60,5ee7665a74f20302efda997f,,1,0,98,26,1,97
,,,,,,,,,,,,,,,,,,,,,,,,,,,,,,,,,,,,,,,,,backspace,4.490999937,KOTC,TRUE,,,,,,,29,coche,Spanish,Sounds/spa_coche.mp3,2020-06-24_18h18.01.106,TranslationElicitation_eng-prolific-spa,3.2.4,Win32,60,5ee7665a74f20302efda997f,,1,0,98,26,1,97
,,,,,,,,,,,,,,,,,,,,,,,,,,,,,,,,,,,,,,,,,backspace,4.986000061,KOT,TRUE,,,,,,,29,coche,Spanish,Sounds/spa_coche.mp3,2020-06-24_18h18.01.106,TranslationElicitation_eng-prolific-spa,3.2.4,Win32,60,5ee7665a74f20302efda997f,,1,0,98,26,1,97
,,,,,,,,,,,,,,,,,,,,,,,,,,,,,,,,,,,,,,,,,backspace,5.019999981,KO,TRUE,,,,,,,29,coche,Spanish,Sounds/spa_coche.mp3,2020-06-24_18h18.01.106,TranslationElicitation_eng-prolific-spa,3.2.4,Win32,60,5ee7665a74f20302efda997f,,1,0,98,26,1,97
,,,,,,,,,,,,,,,,,,,,,,,,,,,,,,,,,,,,,,,,,backspace,5.052999973,K,TRUE,,,,,,,29,coche,Spanish,Sounds/spa_coche.mp3,2020-06-24_18h18.01.106,TranslationElicitation_eng-prolific-spa,3.2.4,Win32,60,5ee7665a74f20302efda997f,,1,0,98,26,1,97
,,,,,,,,,,,,,,,,,,,,,,,,,,,,,,,,,,,,,,,,,backspace,5.086999893,,TRUE,,,,,,,29,coche,Spanish,Sounds/spa_coche.mp3,2020-06-24_18h18.01.106,TranslationElicitation_eng-prolific-spa,3.2.4,Win32,60,5ee7665a74f20302efda997f,,1,0,98,26,1,97
,,,,,,,,,,,,,,,,,,,,,,,,,,,,,,,,,,,,,,,,,backspace,5.118999958,,TRUE,,,,,,,29,coche,Spanish,Sounds/spa_coche.mp3,2020-06-24_18h18.01.106,TranslationElicitation_eng-prolific-spa,3.2.4,Win32,60,5ee7665a74f20302efda997f,,1,0,98,26,1,97
,,,,,,,,,,,,,,,,,,,,,,,,,,,,,,,,,,,,,,,,,backspace,5.157999992,,TRUE,,,,,,,29,coche,Spanish,Sounds/spa_coche.mp3,2020-06-24_18h18.01.106,TranslationElicitation_eng-prolific-spa,3.2.4,Win32,60,5ee7665a74f20302efda997f,,1,0,98,26,1,97
,,,,,,,,,,,,,,,,,,,,,,,,,,,,,,,,,,,,,,,,,backspace,5.187000036,,TRUE,,,,,,,29,coche,Spanish,Sounds/spa_coche.mp3,2020-06-24_18h18.01.106,TranslationElicitation_eng-prolific-spa,3.2.4,Win32,60,5ee7665a74f20302efda997f,,1,0,98,26,1,97
,,,,,,,,,,,,,,,,,,,,,,,,,,,,,,,,,,,,,,,,,backspace,5.220000029,,TRUE,,,,,,,29,coche,Spanish,Sounds/spa_coche.mp3,2020-06-24_18h18.01.106,TranslationElicitation_eng-prolific-spa,3.2.4,Win32,60,5ee7665a74f20302efda997f,,1,0,98,26,1,97
,,,,,,,,,,,,,,,,,,,,,,,,,,,,,,,,,,,,,,,,,backspace,5.253000021,,TRUE,,,,,,,29,coche,Spanish,Sounds/spa_coche.mp3,2020-06-24_18h18.01.106,TranslationElicitation_eng-prolific-spa,3.2.4,Win32,60,5ee7665a74f20302efda997f,,1,0,98,26,1,97
,,,,,,,,,,,,,,,,,,,,,,,,,,,,,,,,,,,,,,,,,backspace,5.286999941,,TRUE,,,,,,,29,coche,Spanish,Sounds/spa_coche.mp3,2020-06-24_18h18.01.106,TranslationElicitation_eng-prolific-spa,3.2.4,Win32,60,5ee7665a74f20302efda997f,,1,0,98,26,1,97
,,,,,,,,,,,,,,,,,,,,,,,,,,,,,,,,,,,,,,,,,c,5.887000084,C,TRUE,,,,,,,29,coche,Spanish,Sounds/spa_coche.mp3,2020-06-24_18h18.01.106,TranslationElicitation_eng-prolific-spa,3.2.4,Win32,60,5ee7665a74f20302efda997f,,1,0,98,26,1,97
,,,,,,,,,,,,,,,,,,,,,,,,,,,,,,,,,,,,,,,,,o,5.987999916,CO,TRUE,,,,,,,29,coche,Spanish,Sounds/spa_coche.mp3,2020-06-24_18h18.01.106,TranslationElicitation_eng-prolific-spa,3.2.4,Win32,60,5ee7665a74f20302efda997f,,1,0,98,26,1,97
,,,,,,,,,,,,,,,,,,,,,,,,,,,,,,,,,,,,,,,,,f,6.256000042,COF,TRUE,,,,,,,29,coche,Spanish,Sounds/spa_coche.mp3,2020-06-24_18h18.01.106,TranslationElicitation_eng-prolific-spa,3.2.4,Win32,60,5ee7665a74f20302efda997f,,1,0,98,26,1,97
,,,,,,,,,,,,,,,,,,,,,,,,,,,,,,,,,,,,,,,,,f,6.387000084,COFF,TRUE,,,,,,,29,coche,Spanish,Sounds/spa_coche.mp3,2020-06-24_18h18.01.106,TranslationElicitation_eng-prolific-spa,3.2.4,Win32,60,5ee7665a74f20302efda997f,,1,0,98,26,1,97
,,,,,,,,,,,,,,,,,,,,,,,,,,,,,,,,,,,,,,,,,e,6.503999949,COFFE,TRUE,,,,,,,29,coche,Spanish,Sounds/spa_coche.mp3,2020-06-24_18h18.01.106,TranslationElicitation_eng-prolific-spa,3.2.4,Win32,60,5ee7665a74f20302efda997f,,1,0,98,26,1,97
,,,,,,,,,,,,,,,,,,,,,,,,,,,,,,,,,,,,,,,,,e,6.654000044,COFFEE,TRUE,,,,,,,29,coche,Spanish,Sounds/spa_coche.mp3,2020-06-24_18h18.01.106,TranslationElicitation_eng-prolific-spa,3.2.4,Win32,60,5ee7665a74f20302efda997f,,1,0,98,26,1,97
,,,,,,,,,,,,,,,,,,,,,,,,,,,,,,,,,,,,,,,,,return,7.020999908,COFFEE,TRUE,,,,,,,29,coche,Spanish,Sounds/spa_coche.mp3,2020-06-24_18h18.01.106,TranslationElicitation_eng-prolific-spa,3.2.4,Win32,60,5ee7665a74f20302efda997f,7.020999908,1,0,98,26,1,97
,,,,,,,,,,,,,,,,,,,,,,,,,,,,,,,,,,,,,,,,,,,,,,,,,,,29,coche,Spanish,Sounds/spa_coche.mp3,2020-06-24_18h18.01.106,TranslationElicitation_eng-prolific-spa,3.2.4,Win32,60,5ee7665a74f20302efda997f,,1,0,98,26,1,97
,,,,,,,,,,,,,,,,,,,,,,,,,,,,,,,,,,,,,,,,,w,3.569000006,W,FALSE,,,,,,,43,globo,Spanish,Sounds/spa_globo.mp3,2020-06-24_18h18.01.106,TranslationElicitation_eng-prolific-spa,3.2.4,Win32,60,5ee7665a74f20302efda997f,,1,0,98,39,1,97
,,,,,,,,,,,,,,,,,,,,,,,,,,,,,,,,,,,,,,,,,a,3.785999775,WA,FALSE,,,,,,,43,globo,Spanish,Sounds/spa_globo.mp3,2020-06-24_18h18.01.106,TranslationElicitation_eng-prolific-spa,3.2.4,Win32,60,5ee7665a74f20302efda997f,,1,0,98,39,1,97
,,,,,,,,,,,,,,,,,,,,,,,,,,,,,,,,,,,,,,,,,t,3.902999878,WAT,FALSE,,,,,,,43,globo,Spanish,Sounds/spa_globo.mp3,2020-06-24_18h18.01.106,TranslationElicitation_eng-prolific-spa,3.2.4,Win32,60,5ee7665a74f20302efda997f,,1,0,98,39,1,97
,,,,,,,,,,,,,,,,,,,,,,,,,,,,,,,,,,,,,,,,,e,3.982999802,WATE,FALSE,,,,,,,43,globo,Spanish,Sounds/spa_globo.mp3,2020-06-24_18h18.01.106,TranslationElicitation_eng-prolific-spa,3.2.4,Win32,60,5ee7665a74f20302efda997f,,1,0,98,39,1,97
,,,,,,,,,,,,,,,,,,,,,,,,,,,,,,,,,,,,,,,,,r,4.085999966,WATER,FALSE,,,,,,,43,globo,Spanish,Sounds/spa_globo.mp3,2020-06-24_18h18.01.106,TranslationElicitation_eng-prolific-spa,3.2.4,Win32,60,5ee7665a74f20302efda997f,,1,0,98,39,1,97
,,,,,,,,,,,,,,,,,,,,,,,,,,,,,,,,,,,,,,,,,return,4.34499979,WATER,FALSE,,,,,,,43,globo,Spanish,Sounds/spa_globo.mp3,2020-06-24_18h18.01.106,TranslationElicitation_eng-prolific-spa,3.2.4,Win32,60,5ee7665a74f20302efda997f,4.34499979,1,0,98,39,1,97
,,,,,,,,,,,,,,,,,,,,,,,,,,,,,,,,,,,,,,,,,,,,,,,,,,,43,globo,Spanish,Sounds/spa_globo.mp3,2020-06-24_18h18.01.106,TranslationElicitation_eng-prolific-spa,3.2.4,Win32,60,5ee7665a74f20302efda997f,,1,0,98,39,1,97
,,,,,,,,,,,,,,,,,,,,,,,,,,,,,,,,,,,,,,,,,i,1.968000174,I,FALSE,,,,,,,51,ladrillo,Spanish,Sounds/spa_ladrillo.mp3,2020-06-24_18h18.01.106,TranslationElicitation_eng-prolific-spa,3.2.4,Win32,60,5ee7665a74f20302efda997f,,1,0,98,47,1,97
,,,,,,,,,,,,,,,,,,,,,,,,,,,,,,,,,,,,,,,,,c,2.051000118,IC,FALSE,,,,,,,51,ladrillo,Spanish,Sounds/spa_ladrillo.mp3,2020-06-24_18h18.01.106,TranslationElicitation_eng-prolific-spa,3.2.4,Win32,60,5ee7665a74f20302efda997f,,1,0,98,47,1,97
,,,,,,,,,,,,,,,,,,,,,,,,,,,,,,,,,,,,,,,,,e,2.235000134,ICE,FALSE,,,,,,,51,ladrillo,Spanish,Sounds/spa_ladrillo.mp3,2020-06-24_18h18.01.106,TranslationElicitation_eng-prolific-spa,3.2.4,Win32,60,5ee7665a74f20302efda997f,,1,0,98,47,1,97
,,,,,,,,,,,,,,,,,,,,,,,,,,,,,,,,,,,,,,,,,space,2.319000006,ICE ,FALSE,,,,,,,51,ladrillo,Spanish,Sounds/spa_ladrillo.mp3,2020-06-24_18h18.01.106,TranslationElicitation_eng-prolific-spa,3.2.4,Win32,60,5ee7665a74f20302efda997f,,1,0,98,47,1,97
,,,,,,,,,,,,,,,,,,,,,,,,,,,,,,,,,,,,,,,,,c,2.534000158,ICE C,FALSE,,,,,,,51,ladrillo,Spanish,Sounds/spa_ladrillo.mp3,2020-06-24_18h18.01.106,TranslationElicitation_eng-prolific-spa,3.2.4,Win32,60,5ee7665a74f20302efda997f,,1,0,98,47,1,97
,,,,,,,,,,,,,,,,,,,,,,,,,,,,,,,,,,,,,,,,,r,2.667999983,ICE CR,FALSE,,,,,,,51,ladrillo,Spanish,Sounds/spa_ladrillo.mp3,2020-06-24_18h18.01.106,TranslationElicitation_eng-prolific-spa,3.2.4,Win32,60,5ee7665a74f20302efda997f,,1,0,98,47,1,97
,,,,,,,,,,,,,,,,,,,,,,,,,,,,,,,,,,,,,,,,,e,2.758000135,ICE CRE,FALSE,,,,,,,51,ladrillo,Spanish,Sounds/spa_ladrillo.mp3,2020-06-24_18h18.01.106,TranslationElicitation_eng-prolific-spa,3.2.4,Win32,60,5ee7665a74f20302efda997f,,1,0,98,47,1,97
,,,,,,,,,,,,,,,,,,,,,,,,,,,,,,,,,,,,,,,,,a,2.851999998,ICE CREA,FALSE,,,,,,,51,ladrillo,Spanish,Sounds/spa_ladrillo.mp3,2020-06-24_18h18.01.106,TranslationElicitation_eng-prolific-spa,3.2.4,Win32,60,5ee7665a74f20302efda997f,,1,0,98,47,1,97
,,,,,,,,,,,,,,,,,,,,,,,,,,,,,,,,,,,,,,,,,m,4.035000086,ICE CREAM,FALSE,,,,,,,51,ladrillo,Spanish,Sounds/spa_ladrillo.mp3,2020-06-24_18h18.01.106,TranslationElicitation_eng-prolific-spa,3.2.4,Win32,60,5ee7665a74f20302efda997f,,1,0,98,47,1,97
,,,,,,,,,,,,,,,,,,,,,,,,,,,,,,,,,,,,,,,,,return,4.536000013,ICE CREAM,FALSE,,,,,,,51,ladrillo,Spanish,Sounds/spa_ladrillo.mp3,2020-06-24_18h18.01.106,TranslationElicitation_eng-prolific-spa,3.2.4,Win32,60,5ee7665a74f20302efda997f,4.536000013,1,0,98,47,1,97
,,,,,,,,,,,,,,,,,,,,,,,,,,,,,,,,,,,,,,,,,,,,,,,,,,,51,ladrillo,Spanish,Sounds/spa_ladrillo.mp3,2020-06-24_18h18.01.106,TranslationElicitation_eng-prolific-spa,3.2.4,Win32,60,5ee7665a74f20302efda997f,,1,0,98,47,1,97
,,,,,,,,,,,,,,,,,,,,,,,,,,,,,,,,,,,,,,,,,o,1.717000008,O,FALSE,,,,,,,68,naranja,Spanish,Sounds/spa_naranja.mp3,2020-06-24_18h18.01.106,TranslationElicitation_eng-prolific-spa,3.2.4,Win32,60,5ee7665a74f20302efda997f,,1,0,98,64,1,97
,,,,,,,,,,,,,,,,,,,,,,,,,,,,,,,,,,,,,,,,,r,1.816999912,OR,FALSE,,,,,,,68,naranja,Spanish,Sounds/spa_naranja.mp3,2020-06-24_18h18.01.106,TranslationElicitation_eng-prolific-spa,3.2.4,Win32,60,5ee7665a74f20302efda997f,,1,0,98,64,1,97
,,,,,,,,,,,,,,,,,,,,,,,,,,,,,,,,,,,,,,,,,a,2.333999872,ORA,FALSE,,,,,,,68,naranja,Spanish,Sounds/spa_naranja.mp3,2020-06-24_18h18.01.106,TranslationElicitation_eng-prolific-spa,3.2.4,Win32,60,5ee7665a74f20302efda997f,,1,0,98,64,1,97
,,,,,,,,,,,,,,,,,,,,,,,,,,,,,,,,,,,,,,,,,n,2.387000084,ORAN,FALSE,,,,,,,68,naranja,Spanish,Sounds/spa_naranja.mp3,2020-06-24_18h18.01.106,TranslationElicitation_eng-prolific-spa,3.2.4,Win32,60,5ee7665a74f20302efda997f,,1,0,98,64,1,97
,,,,,,,,,,,,,,,,,,,,,,,,,,,,,,,,,,,,,,,,,g,2.566999912,ORANG,FALSE,,,,,,,68,naranja,Spanish,Sounds/spa_naranja.mp3,2020-06-24_18h18.01.106,TranslationElicitation_eng-prolific-spa,3.2.4,Win32,60,5ee7665a74f20302efda997f,,1,0,98,64,1,97
,,,,,,,,,,,,,,,,,,,,,,,,,,,,,,,,,,,,,,,,,e,2.583999872,ORANGE,FALSE,,,,,,,68,naranja,Spanish,Sounds/spa_naranja.mp3,2020-06-24_18h18.01.106,TranslationElicitation_eng-prolific-spa,3.2.4,Win32,60,5ee7665a74f20302efda997f,,1,0,98,64,1,97
,,,,,,,,,,,,,,,,,,,,,,,,,,,,,,,,,,,,,,,,,return,3.517999887,ORANGE,FALSE,,,,,,,68,naranja,Spanish,Sounds/spa_naranja.mp3,2020-06-24_18h18.01.106,TranslationElicitation_eng-prolific-spa,3.2.4,Win32,60,5ee7665a74f20302efda997f,3.517999887,1,0,98,64,1,97
,,,,,,,,,,,,,,,,,,,,,,,,,,,,,,,,,,,,,,,,,,,,,,,,,,,68,naranja,Spanish,Sounds/spa_naranja.mp3,2020-06-24_18h18.01.106,TranslationElicitation_eng-prolific-spa,3.2.4,Win32,60,5ee7665a74f20302efda997f,,1,0,98,64,1,97
,,,,,,,,,,,,,,,,,,,,,,,,,,,,,,,,,,,,,,,,,f,2.901000023,F,FALSE,,,,,,,37,flor,Spanish,Sounds/spa_flor.mp3,2020-06-24_18h18.01.106,TranslationElicitation_eng-prolific-spa,3.2.4,Win32,60,5ee7665a74f20302efda997f,,1,0,98,33,1,97
,,,,,,,,,,,,,,,,,,,,,,,,,,,,,,,,,,,,,,,,,l,3.017999887,FL,FALSE,,,,,,,37,flor,Spanish,Sounds/spa_flor.mp3,2020-06-24_18h18.01.106,TranslationElicitation_eng-prolific-spa,3.2.4,Win32,60,5ee7665a74f20302efda997f,,1,0,98,33,1,97
,,,,,,,,,,,,,,,,,,,,,,,,,,,,,,,,,,,,,,,,,o,3.200999975,FLO,FALSE,,,,,,,37,flor,Spanish,Sounds/spa_flor.mp3,2020-06-24_18h18.01.106,TranslationElicitation_eng-prolific-spa,3.2.4,Win32,60,5ee7665a74f20302efda997f,,1,0,98,33,1,97
,,,,,,,,,,,,,,,,,,,,,,,,,,,,,,,,,,,,,,,,,o,3.318000078,FLOO,FALSE,,,,,,,37,flor,Spanish,Sounds/spa_flor.mp3,2020-06-24_18h18.01.106,TranslationElicitation_eng-prolific-spa,3.2.4,Win32,60,5ee7665a74f20302efda997f,,1,0,98,33,1,97
,,,,,,,,,,,,,,,,,,,,,,,,,,,,,,,,,,,,,,,,,r,3.401000023,FLOOR,FALSE,,,,,,,37,flor,Spanish,Sounds/spa_flor.mp3,2020-06-24_18h18.01.106,TranslationElicitation_eng-prolific-spa,3.2.4,Win32,60,5ee7665a74f20302efda997f,,1,0,98,33,1,97
,,,,,,,,,,,,,,,,,,,,,,,,,,,,,,,,,,,,,,,,,return,3.944999933,FLOOR,FALSE,,,,,,,37,flor,Spanish,Sounds/spa_flor.mp3,2020-06-24_18h18.01.106,TranslationElicitation_eng-prolific-spa,3.2.4,Win32,60,5ee7665a74f20302efda997f,3.944999933,1,0,98,33,1,97
,,,,,,,,,,,,,,,,,,,,,,,,,,,,,,,,,,,,,,,,,,,,,,,,,,,37,flor,Spanish,Sounds/spa_flor.mp3,2020-06-24_18h18.01.106,TranslationElicitation_eng-prolific-spa,3.2.4,Win32,60,5ee7665a74f20302efda997f,,1,0,98,33,1,97
,,,,,,,,,,,,,,,,,,,,,,,,,,,,,,,,,,,,,,,,,b,2.316999912,B,FALSE,,,,,,,102,ventana,Spanish,Sounds/spa_ventana.mp3,2020-06-24_18h18.01.106,TranslationElicitation_eng-prolific-spa,3.2.4,Win32,60,5ee7665a74f20302efda997f,,1,0,98,96,1,97
,,,,,,,,,,,,,,,,,,,,,,,,,,,,,,,,,,,,,,,,,a,2.667000055,BA,FALSE,,,,,,,102,ventana,Spanish,Sounds/spa_ventana.mp3,2020-06-24_18h18.01.106,TranslationElicitation_eng-prolific-spa,3.2.4,Win32,60,5ee7665a74f20302efda997f,,1,0,98,96,1,97
,,,,,,,,,,,,,,,,,,,,,,,,,,,,,,,,,,,,,,,,,n,2.750999928,BAN,FALSE,,,,,,,102,ventana,Spanish,Sounds/spa_ventana.mp3,2020-06-24_18h18.01.106,TranslationElicitation_eng-prolific-spa,3.2.4,Win32,60,5ee7665a74f20302efda997f,,1,0,98,96,1,97
,,,,,,,,,,,,,,,,,,,,,,,,,,,,,,,,,,,,,,,,,d,3.552000046,BAND,FALSE,,,,,,,102,ventana,Spanish,Sounds/spa_ventana.mp3,2020-06-24_18h18.01.106,TranslationElicitation_eng-prolific-spa,3.2.4,Win32,60,5ee7665a74f20302efda997f,,1,0,98,96,1,97
,,,,,,,,,,,,,,,,,,,,,,,,,,,,,,,,,,,,,,,,,a,3.784999847,BANDA,FALSE,,,,,,,102,ventana,Spanish,Sounds/spa_ventana.mp3,2020-06-24_18h18.01.106,TranslationElicitation_eng-prolific-spa,3.2.4,Win32,60,5ee7665a74f20302efda997f,,1,0,98,96,1,97
,,,,,,,,,,,,,,,,,,,,,,,,,,,,,,,,,,,,,,,,,n,3.868999958,BANDAN,FALSE,,,,,,,102,ventana,Spanish,Sounds/spa_ventana.mp3,2020-06-24_18h18.01.106,TranslationElicitation_eng-prolific-spa,3.2.4,Win32,60,5ee7665a74f20302efda997f,,1,0,98,96,1,97
,,,,,,,,,,,,,,,,,,,,,,,,,,,,,,,,,,,,,,,,,a,3.986000061,BANDANA,FALSE,,,,,,,102,ventana,Spanish,Sounds/spa_ventana.mp3,2020-06-24_18h18.01.106,TranslationElicitation_eng-prolific-spa,3.2.4,Win32,60,5ee7665a74f20302efda997f,,1,0,98,96,1,97
,,,,,,,,,,,,,,,,,,,,,,,,,,,,,,,,,,,,,,,,,return,4.569000006,BANDANA,FALSE,,,,,,,102,ventana,Spanish,Sounds/spa_ventana.mp3,2020-06-24_18h18.01.106,TranslationElicitation_eng-prolific-spa,3.2.4,Win32,60,5ee7665a74f20302efda997f,4.569000006,1,0,98,96,1,97
,,,,,,,,,,,,,,,,,,,,,,,,,,,,,,,,,,,,,,,,,,,,,,,,,,,102,ventana,Spanish,Sounds/spa_ventana.mp3,2020-06-24_18h18.01.106,TranslationElicitation_eng-prolific-spa,3.2.4,Win32,60,5ee7665a74f20302efda997f,,1,0,98,96,1,97
,,,,,,,,,,,,,,,,,,,,,,,,,,,,,,,,,,,,,,,,,n,2.551000118,N,FALSE,,,,,,,69,nariz,Spanish,Sounds/spa_nariz.mp3,2020-06-24_18h18.01.106,TranslationElicitation_eng-prolific-spa,3.2.4,Win32,60,5ee7665a74f20302efda997f,,1,0,98,65,1,97
,,,,,,,,,,,,,,,,,,,,,,,,,,,,,,,,,,,,,,,,,a,2.651000023,NA,FALSE,,,,,,,69,nariz,Spanish,Sounds/spa_nariz.mp3,2020-06-24_18h18.01.106,TranslationElicitation_eng-prolific-spa,3.2.4,Win32,60,5ee7665a74f20302efda997f,,1,0,98,65,1,97
,,,,,,,,,,,,,,,,,,,,,,,,,,,,,,,,,,,,,,,,,r,2.834000111,NAR,FALSE,,,,,,,69,nariz,Spanish,Sounds/spa_nariz.mp3,2020-06-24_18h18.01.106,TranslationElicitation_eng-prolific-spa,3.2.4,Win32,60,5ee7665a74f20302efda997f,,1,0,98,65,1,97
,,,,,,,,,,,,,,,,,,,,,,,,,,,,,,,,,,,,,,,,,i,2.950999975,NARI,FALSE,,,,,,,69,nariz,Spanish,Sounds/spa_nariz.mp3,2020-06-24_18h18.01.106,TranslationElicitation_eng-prolific-spa,3.2.4,Win32,60,5ee7665a74f20302efda997f,,1,0,98,65,1,97
,,,,,,,,,,,,,,,,,,,,,,,,,,,,,,,,,,,,,,,,,v,3.085000038,NARIV,FALSE,,,,,,,69,nariz,Spanish,Sounds/spa_nariz.mp3,2020-06-24_18h18.01.106,TranslationElicitation_eng-prolific-spa,3.2.4,Win32,60,5ee7665a74f20302efda997f,,1,0,98,65,1,97
,,,,,,,,,,,,,,,,,,,,,,,,,,,,,,,,,,,,,,,,,e,3.13499999,NARIVE,FALSE,,,,,,,69,nariz,Spanish,Sounds/spa_nariz.mp3,2020-06-24_18h18.01.106,TranslationElicitation_eng-prolific-spa,3.2.4,Win32,60,5ee7665a74f20302efda997f,,1,0,98,65,1,97
,,,,,,,,,,,,,,,,,,,,,,,,,,,,,,,,,,,,,,,,,backspace,12.42500019,NARIV,TRUE,,,,,,,69,nariz,Spanish,Sounds/spa_nariz.mp3,2020-06-24_18h18.01.106,TranslationElicitation_eng-prolific-spa,3.2.4,Win32,60,5ee7665a74f20302efda997f,,1,0,98,65,1,97
,,,,,,,,,,,,,,,,,,,,,,,,,,,,,,,,,,,,,,,,,backspace,12.625,NARI,TRUE,,,,,,,69,nariz,Spanish,Sounds/spa_nariz.mp3,2020-06-24_18h18.01.106,TranslationElicitation_eng-prolific-spa,3.2.4,Win32,60,5ee7665a74f20302efda997f,,1,0,98,65,1,97
,,,,,,,,,,,,,,,,,,,,,,,,,,,,,,,,,,,,,,,,,backspace,12.85800004,NAR,TRUE,,,,,,,69,nariz,Spanish,Sounds/spa_nariz.mp3,2020-06-24_18h18.01.106,TranslationElicitation_eng-prolific-spa,3.2.4,Win32,60,5ee7665a74f20302efda997f,,1,0,98,65,1,97
,,,,,,,,,,,,,,,,,,,,,,,,,,,,,,,,,,,,,,,,,backspace,15.4940002,NA,TRUE,,,,,,,69,nariz,Spanish,Sounds/spa_nariz.mp3,2020-06-24_18h18.01.106,TranslationElicitation_eng-prolific-spa,3.2.4,Win32,60,5ee7665a74f20302efda997f,,1,0,98,65,1,97
,,,,,,,,,,,,,,,,,,,,,,,,,,,,,,,,,,,,,,,,,backspace,18.07800007,N,TRUE,,,,,,,69,nariz,Spanish,Sounds/spa_nariz.mp3,2020-06-24_18h18.01.106,TranslationElicitation_eng-prolific-spa,3.2.4,Win32,60,5ee7665a74f20302efda997f,,1,0,98,65,1,97
,,,,,,,,,,,,,,,,,,,,,,,,,,,,,,,,,,,,,,,,,backspace,18.26300001,,TRUE,,,,,,,69,nariz,Spanish,Sounds/spa_nariz.mp3,2020-06-24_18h18.01.106,TranslationElicitation_eng-prolific-spa,3.2.4,Win32,60,5ee7665a74f20302efda997f,,1,0,98,65,1,97
,,,,,,,,,,,,,,,,,,,,,,,,,,,,,,,,,,,,,,,,,backspace,18.46300006,,TRUE,,,,,,,69,nariz,Spanish,Sounds/spa_nariz.mp3,2020-06-24_18h18.01.106,TranslationElicitation_eng-prolific-spa,3.2.4,Win32,60,5ee7665a74f20302efda997f,,1,0,98,65,1,97
,,,,,,,,,,,,,,,,,,,,,,,,,,,,,,,,,,,,,,,,,n,20.24699998,N,TRUE,,,,,,,69,nariz,Spanish,Sounds/spa_nariz.mp3,2020-06-24_18h18.01.106,TranslationElicitation_eng-prolific-spa,3.2.4,Win32,60,5ee7665a74f20302efda997f,,1,0,98,65,1,97
,,,,,,,,,,,,,,,,,,,,,,,,,,,,,,,,,,,,,,,,,a,20.53100014,NA,TRUE,,,,,,,69,nariz,Spanish,Sounds/spa_nariz.mp3,2020-06-24_18h18.01.106,TranslationElicitation_eng-prolific-spa,3.2.4,Win32,60,5ee7665a74f20302efda997f,,1,0,98,65,1,97
,,,,,,,,,,,,,,,,,,,,,,,,,,,,,,,,,,,,,,,,,p,20.84800005,NAP,TRUE,,,,,,,69,nariz,Spanish,Sounds/spa_nariz.mp3,2020-06-24_18h18.01.106,TranslationElicitation_eng-prolific-spa,3.2.4,Win32,60,5ee7665a74f20302efda997f,,1,0,98,65,1,97
,,,,,,,,,,,,,,,,,,,,,,,,,,,,,,,,,,,,,,,,,p,20.96399999,NAPP,TRUE,,,,,,,69,nariz,Spanish,Sounds/spa_nariz.mp3,2020-06-24_18h18.01.106,TranslationElicitation_eng-prolific-spa,3.2.4,Win32,60,5ee7665a74f20302efda997f,,1,0,98,65,1,97
,,,,,,,,,,,,,,,,,,,,,,,,,,,,,,,,,,,,,,,,,y,21.0150001,NAPPY,TRUE,,,,,,,69,nariz,Spanish,Sounds/spa_nariz.mp3,2020-06-24_18h18.01.106,TranslationElicitation_eng-prolific-spa,3.2.4,Win32,60,5ee7665a74f20302efda997f,,1,0,98,65,1,97
,,,,,,,,,,,,,,,,,,,,,,,,,,,,,,,,,,,,,,,,,return,21.44800019,NAPPY,TRUE,,,,,,,69,nariz,Spanish,Sounds/spa_nariz.mp3,2020-06-24_18h18.01.106,TranslationElicitation_eng-prolific-spa,3.2.4,Win32,60,5ee7665a74f20302efda997f,21.44800019,1,0,98,65,1,97
,,,,,,,,,,,,,,,,,,,,,,,,,,,,,,,,,,,,,,,,,,,,,,,,,,,69,nariz,Spanish,Sounds/spa_nariz.mp3,2020-06-24_18h18.01.106,TranslationElicitation_eng-prolific-spa,3.2.4,Win32,60,5ee7665a74f20302efda997f,,1,0,98,65,1,97
,,,,,,,,,,,,,,,,,,,,,,,,,,,,,,,,,,,,,,,,,d,15.26499987,D,FALSE,,,,,,,33,dedo,Spanish,Sounds/spa_dedo.mp3,2020-06-24_18h18.01.106,TranslationElicitation_eng-prolific-spa,3.2.4,Win32,60,5ee7665a74f20302efda997f,,1,0,98,29,1,97
,,,,,,,,,,,,,,,,,,,,,,,,,,,,,,,,,,,,,,,,,o,15.36100006,DO,FALSE,,,,,,,33,dedo,Spanish,Sounds/spa_dedo.mp3,2020-06-24_18h18.01.106,TranslationElicitation_eng-prolific-spa,3.2.4,Win32,60,5ee7665a74f20302efda997f,,1,0,98,29,1,97
,,,,,,,,,,,,,,,,,,,,,,,,,,,,,,,,,,,,,,,,,g,15.42799997,DOG,FALSE,,,,,,,33,dedo,Spanish,Sounds/spa_dedo.mp3,2020-06-24_18h18.01.106,TranslationElicitation_eng-prolific-spa,3.2.4,Win32,60,5ee7665a74f20302efda997f,,1,0,98,29,1,97
,,,,,,,,,,,,,,,,,,,,,,,,,,,,,,,,,,,,,,,,,return,15.81099987,DOG,FALSE,,,,,,,33,dedo,Spanish,Sounds/spa_dedo.mp3,2020-06-24_18h18.01.106,TranslationElicitation_eng-prolific-spa,3.2.4,Win32,60,5ee7665a74f20302efda997f,15.81099987,1,0,98,29,1,97
,,,,,,,,,,,,,,,,,,,,,,,,,,,,,,,,,,,,,,,,,,,,,,,,,,,33,dedo,Spanish,Sounds/spa_dedo.mp3,2020-06-24_18h18.01.106,TranslationElicitation_eng-prolific-spa,3.2.4,Win32,60,5ee7665a74f20302efda997f,,1,0,98,29,1,97
,,,,,,,,,,,,,,,,,,,,,,,,,,,,,,,,,,,,,,,,,b,1.73300004,B,FALSE,,,,,,,8,bol,Spanish,Sounds/spa_bol.mp3,2020-06-24_18h18.01.106,TranslationElicitation_eng-prolific-spa,3.2.4,Win32,60,5ee7665a74f20302efda997f,,1,0,98,6,1,97
,,,,,,,,,,,,,,,,,,,,,,,,,,,,,,,,,,,,,,,,,a,2.01699996,BA,FALSE,,,,,,,8,bol,Spanish,Sounds/spa_bol.mp3,2020-06-24_18h18.01.106,TranslationElicitation_eng-prolific-spa,3.2.4,Win32,60,5ee7665a74f20302efda997f,,1,0,98,6,1,97
,,,,,,,,,,,,,,,,,,,,,,,,,,,,,,,,,,,,,,,,,l,2.167000055,BAL,FALSE,,,,,,,8,bol,Spanish,Sounds/spa_bol.mp3,2020-06-24_18h18.01.106,TranslationElicitation_eng-prolific-spa,3.2.4,Win32,60,5ee7665a74f20302efda997f,,1,0,98,6,1,97
,,,,,,,,,,,,,,,,,,,,,,,,,,,,,,,,,,,,,,,,,l,2.269999981,BALL,FALSE,,,,,,,8,bol,Spanish,Sounds/spa_bol.mp3,2020-06-24_18h18.01.106,TranslationElicitation_eng-prolific-spa,3.2.4,Win32,60,5ee7665a74f20302efda997f,,1,0,98,6,1,97
,,,,,,,,,,,,,,,,,,,,,,,,,,,,,,,,,,,,,,,,,return,2.48300004,BALL,FALSE,,,,,,,8,bol,Spanish,Sounds/spa_bol.mp3,2020-06-24_18h18.01.106,TranslationElicitation_eng-prolific-spa,3.2.4,Win32,60,5ee7665a74f20302efda997f,2.48300004,1,0,98,6,1,97
,,,,,,,,,,,,,,,,,,,,,,,,,,,,,,,,,,,,,,,,,,,,,,,,,,,8,bol,Spanish,Sounds/spa_bol.mp3,2020-06-24_18h18.01.106,TranslationElicitation_eng-prolific-spa,3.2.4,Win32,60,5ee7665a74f20302efda997f,,1,0,98,6,1,97
,,,,,,,,,,,,,,,,,,,,,,,,,,,,,,,,,,,,,,,,,b,2.81799984,B,FALSE,,,,,,,83,pez,Spanish,Sounds/spa_pez.mp3,2020-06-24_18h18.01.106,TranslationElicitation_eng-prolific-spa,3.2.4,Win32,60,5ee7665a74f20302efda997f,,1,0,98,78,1,97
